STEVAL-MKI197V1 (LSM6DSOX)

A_X [mg] 	 A_Y [mg] 	 A_Z [mg] 	G_X [dps] 	 G_Y [dps] 	 G_Z [dps] 	
598 	 849 	 48 	-6.195 	 -10.99 	 -19.705 	
592 	 849 	 50 	-4.41 	 -11.48 	 -19.88 	
593 	 849 	 49 	-2.765 	 -12.04 	 -20.055 	
589 	 851 	 45 	-1.26 	 -12.67 	 -20.265 	
583 	 857 	 42 	0.14 	 -13.3 	 -20.405 	
579 	 862 	 36 	1.4 	 -13.895 	 -20.475 	
579 	 862 	 35 	2.555 	 -14.385 	 -20.475 	
576 	 859 	 31 	3.605 	 -14.77 	 -20.475 	
576 	 862 	 33 	4.62 	 -15.05 	 -20.44 	
574 	 863 	 29 	5.565 	 -14.945 	 -20.335 	
574 	 860 	 11 	6.44 	 -14.595 	 -20.265 	
574 	 852 	 3 	7.14 	 -13.79 	 -20.09 	
574 	 843 	 0 	7.805 	 -12.635 	 -20.02 	
568 	 836 	 -4 	8.505 	 -11.165 	 -19.915 	
562 	 834 	 -7 	9.065 	 -9.555 	 -19.705 	
559 	 834 	 -9 	9.66 	 -8.015 	 -19.46 	
555 	 834 	 -12 	10.29 	 -6.72 	 -19.285 	
548 	 832 	 -13 	10.85 	 -5.565 	 -19.215 	
541 	 829 	 -18 	11.235 	 -4.62 	 -18.935 	
541 	 827 	 -18 	11.585 	 -3.815 	 -18.585 	
538 	 827 	 -19 	11.935 	 -3.22 	 -18.41 	
533 	 829 	 -17 	12.285 	 -2.765 	 -18.13 	
533 	 829 	 -17 	12.39 	 -2.555 	 -17.71 	
533 	 828 	 -19 	12.425 	 -2.625 	 -17.255 	
532 	 832 	 -25 	12.53 	 -2.94 	 -16.835 	
526 	 831 	 -29 	12.6 	 -3.325 	 -16.45 	
527 	 832 	 -25 	12.53 	 -3.92 	 -15.89 	
528 	 833 	 -26 	12.495 	 -4.27 	 -15.26 	
530 	 833 	 -32 	12.39 	 -4.585 	 -14.77 	
524 	 833 	 -38 	12.215 	 -4.69 	 -14.175 	
524 	 827 	 -35 	11.83 	 -4.585 	 -13.615 	
524 	 825 	 -37 	11.62 	 -4.445 	 -12.985 	
522 	 826 	 -46 	11.27 	 -4.34 	 -12.39 	
520 	 826 	 -48 	10.85 	 -4.375 	 -11.76 	
518 	 827 	 -47 	10.43 	 -4.445 	 -11.025 	
517 	 831 	 -47 	10.08 	 -4.725 	 -10.36 	
517 	 833 	 -48 	9.555 	 -5.075 	 -9.66 	
517 	 833 	 -53 	8.995 	 -5.46 	 -8.96 	
517 	 836 	 -49 	8.54 	 -5.845 	 -8.26 	
516 	 841 	 -50 	7.945 	 -6.02 	 -7.56 	
520 	 843 	 -56 	7.28 	 -5.985 	 -6.79 	
522 	 842 	 -63 	6.72 	 -5.67 	 -6.02 	
524 	 841 	 -69 	6.195 	 -5.25 	 -5.355 	
526 	 846 	 -70 	5.46 	 -4.095 	 -4.69 	
528 	 841 	 -73 	5.04 	 -3.115 	 -4.025 	
524 	 838 	 -71 	4.305 	 -1.925 	 -3.325 	
521 	 833 	 -70 	3.78 	 -0.875 	 -2.625 	
514 	 831 	 -70 	3.36 	 -0.175 	 -2.065 	
510 	 829 	 -71 	2.695 	 0.245 	 -1.435 	
509 	 827 	 -66 	2.135 	 0.28 	 -0.805 	
505 	 826 	 -64 	1.785 	 -0.14 	 -0.28 	
508 	 825 	 -66 	1.19 	 -0.525 	 0.35 	
508 	 826 	 -66 	0.56 	 -1.12 	 0.875 	
509 	 827 	 -61 	0.035 	 -1.715 	 1.435 	
512 	 833 	 -63 	-0.385 	 -2.345 	 1.96 	
515 	 833 	 -64 	-0.98 	 -2.695 	 2.52 	
518 	 837 	 -64 	-1.54 	 -2.905 	 3.08 	
524 	 836 	 -63 	-2.1 	 -2.87 	 3.605 	
526 	 838 	 -68 	-2.695 	 -2.695 	 4.025 	
529 	 837 	 -67 	-3.185 	 -2.415 	 4.515 	
532 	 838 	 -63 	-3.675 	 -1.89 	 4.97 	
535 	 842 	 -58 	-4.165 	 -1.12 	 5.355 	
543 	 840 	 -61 	-4.445 	 -0.28 	 5.74 	
544 	 836 	 -64 	-4.76 	 0.595 	 6.09 	
547 	 828 	 -65 	-5.18 	 1.505 	 6.51 	
547 	 821 	 -62 	-5.32 	 2.275 	 6.86 	
545 	 815 	 -60 	-5.355 	 2.73 	 7.175 	
542 	 815 	 -57 	-5.32 	 2.94 	 7.49 	
540 	 815 	 -48 	-5.39 	 2.695 	 7.805 	
540 	 813 	 -43 	-5.285 	 2.065 	 8.05 	
541 	 813 	 -42 	-5.075 	 1.225 	 8.33 	
542 	 813 	 -42 	-4.97 	 0.21 	 8.61 	
546 	 815 	 -45 	-4.865 	 -0.63 	 8.89 	
554 	 814 	 -42 	-4.585 	 -1.225 	 9.17 	
557 	 816 	 -44 	-4.55 	 -1.54 	 9.415 	
563 	 817 	 -43 	-4.34 	 -1.715 	 9.73 	
567 	 826 	 -39 	-4.2 	 -1.645 	 10.045 	
571 	 834 	 -35 	-3.99 	 -1.435 	 10.29 	
573 	 838 	 -30 	-3.85 	 -1.12 	 10.535 	
582 	 836 	 -33 	-3.605 	 -0.84 	 10.885 	
585 	 834 	 -33 	-3.43 	 -0.28 	 11.2 	
586 	 833 	 -32 	-3.22 	 0.525 	 11.34 	
589 	 831 	 -31 	-2.94 	 1.435 	 11.55 	
590 	 830 	 -32 	-2.52 	 2.45 	 11.795 	
590 	 822 	 -36 	-2.17 	 3.43 	 11.83 	
588 	 818 	 -35 	-1.715 	 4.375 	 11.9 	
585 	 811 	 -31 	-1.295 	 5.18 	 11.935 	
580 	 809 	 -27 	-0.63 	 5.53 	 11.9 	
574 	 810 	 -22 	0.07 	 5.635 	 11.83 	
571 	 810 	 -19 	0.56 	 5.53 	 11.725 	
570 	 808 	 -16 	1.225 	 5.11 	 11.62 	
573 	 808 	 -20 	1.785 	 4.725 	 11.515 	
576 	 807 	 -20 	2.52 	 4.27 	 11.375 	
579 	 807 	 -22 	3.185 	 4.13 	 11.2 	
581 	 807 	 -24 	3.85 	 4.305 	 10.99 	
592 	 807 	 -27 	4.48 	 4.83 	 10.85 	
596 	 814 	 -16 	5.11 	 5.67 	 10.71 	
602 	 823 	 -1 	5.81 	 6.825 	 10.43 	
610 	 830 	 2 	6.58 	 8.015 	 10.29 	
621 	 833 	 6 	7.28 	 9.275 	 10.185 	
630 	 839 	 20 	8.05 	 10.605 	 9.94 	
636 	 847 	 38 	9.135 	 11.795 	 9.8 	
633 	 844 	 40 	10.465 	 12.74 	 9.695 	
634 	 837 	 36 	11.795 	 13.195 	 9.695 	
641 	 824 	 49 	13.37 	 13.09 	 9.555 	
649 	 830 	 84 	15.33 	 12.705 	 9.31 	
662 	 851 	 122 	17.675 	 12.46 	 8.96 	
689 	 870 	 136 	20.265 	 12.845 	 8.855 	
711 	 880 	 150 	23.065 	 14.315 	 8.61 	
758 	 902 	 212 	26.18 	 17.36 	 8.435 	
812 	 915 	 230 	29.89 	 22.785 	 7.945 	
777 	 880 	 262 	33.355 	 31.955 	 6.895 	
827 	 836 	 174 	37.835 	 42.245 	 6.58 	
813 	 811 	 181 	44.03 	 55.65 	 6.335 	
798 	 765 	 148 	49.945 	 68.075 	 5.18 	
762 	 641 	 114 	56.84 	 79.555 	 4.34 	
721 	 605 	 125 	65.135 	 89.46 	 3.01 	
684 	 622 	 164 	73.745 	 96.845 	 1.19 	
607 	 642 	 224 	83.055 	 101.605 	 -0.035 	
573 	 655 	 190 	93.45 	 102.62 	 -0.525 	
573 	 673 	 177 	103.11 	 99.155 	 -1.365 	
555 	 661 	 223 	112.42 	 91.28 	 -2.24 	
558 	 651 	 330 	122.115 	 78.575 	 -1.995 	
515 	 697 	 196 	132.37 	 65.975 	 -1.855 	
448 	 792 	 17 	143.045 	 55.125 	 -3.5 	
492 	 808 	 177 	150.01 	 48.755 	 -3.325 	
495 	 673 	 357 	157.815 	 46.2 	 -1.995 	
460 	 648 	 166 	168.21 	 45.01 	 -3.745 	
315 	 698 	 -67 	174.58 	 44.52 	 -6.405 	
266 	 666 	 -70 	179.2 	 44.52 	 -6.895 	
356 	 550 	 33 	185.325 	 42.665 	 -6.265 	
242 	 543 	 -174 	192.92 	 44.135 	 -7.7 	
153 	 699 	 -429 	201.81 	 44.59 	 -10.01 	
113 	 680 	 -546 	206.01 	 47.915 	 -10.08 	
147 	 559 	 -481 	210.35 	 54.46 	 -9.94 	
138 	 498 	 -506 	218.715 	 63.315 	 -11.235 	
33 	 479 	 -655 	224.665 	 73.57 	 -11.865 	
-50 	 404 	 -711 	227.395 	 84.21 	 -10.92 	
-99 	 337 	 -720 	232.365 	 94.535 	 -9.52 	
-151 	 299 	 -833 	238.35 	 104.545 	 -8.785 	
-256 	 231 	 -867 	241.01 	 115.675 	 -7.665 	
-339 	 91 	 -833 	242.13 	 126.525 	 -4.305 	
-354 	 -19 	 -803 	242.9 	 138.985 	 0.315 	
-187 	 -75 	 -807 	237.72 	 155.4 	 10.08 	
227 	 -203 	 -823 	225.82 	 179.48 	 28.07 	
731 	 -26 	 -1074 	209.965 	 212.695 	 47.46 	
871 	 843 	 -1357 	181.615 	 248.99 	 61.215 	
273 	 1828 	 -1384 	137.41 	 257.775 	 74.235 	
-228 	 1911 	 -1292 	90.58 	 212.17 	 101.08 	
-472 	 1824 	 -1081 	35.28 	 99.05 	 136.29 	
-145 	 2010 	 -1078 	-26.88 	 -65.1 	 176.12 	
676 	 1953 	 -1680 	-85.12 	 -234.745 	 220.325 	
1863 	 1795 	 -3290 	-144.55 	 -363.44 	 265.335 	
2636 	 1571 	 -4324 	-215.25 	 -411.04 	 305.55 	
2635 	 1365 	 -4419 	-293.405 	 -395.255 	 344.33 	
2319 	 1202 	 -3807 	-367.955 	 -357.875 	 386.295 	
1933 	 1081 	 -3063 	-437.675 	 -339.535 	 426.93 	
1633 	 742 	 -2451 	-506.45 	 -364.105 	 463.12 	
1371 	 226 	 -2200 	-566.965 	 -425.845 	 496.265 	
1353 	 -178 	 -2107 	-620.27 	 -497.735 	 531.23 	
1807 	 -620 	 -1744 	-667.38 	 -554.575 	 563.85 	
2314 	 -1059 	 -1317 	-696.78 	 -576.205 	 583.1 	
2661 	 -1198 	 -1330 	-711.445 	 -557.795 	 586.18 	
3077 	 -2006 	 -1794 	-719.215 	 -494.935 	 578.095 	
3451 	 -3329 	 -2025 	-714.945 	 -381.675 	 551.705 	
3853 	 -4192 	 -2316 	-698.6 	 -227.99 	 500.815 	
3609 	 -4380 	 -1941 	-679.665 	 -58.87 	 421.435 	
3064 	 -4492 	 -920 	-658.245 	 81.445 	 322.945 	
2214 	 -4558 	 272 	-616.805 	 164.08 	 207.76 	
1589 	 -4487 	 771 	-553.315 	 180.74 	 87.045 	
1420 	 -3976 	 908 	-488.46 	 153.615 	 -27.965 	
1865 	 -3623 	 1581 	-424.095 	 112.56 	 -135.03 	
2500 	 -2985 	 1927 	-350.49 	 92.19 	 -239.925 	
2798 	 -2200 	 1797 	-277.2 	 113.75 	 -342.335 	
2607 	 -1617 	 2074 	-211.995 	 171.36 	 -435.75 	
1934 	 -979 	 2752 	-147.245 	 234.5 	 -516.985 	
965 	 -343 	 3269 	-80.465 	 266.595 	 -584.57 	
87 	 277 	 3424 	-20.265 	 248.78 	 -635.775 	
-244 	 857 	 3354 	27.685 	 192.08 	 -667.135 	
-38 	 1270 	 3118 	65.765 	 128.1 	 -683.83 	
156 	 1593 	 2628 	97.37 	 84.455 	 -692.65 	
149 	 1878 	 1980 	120.96 	 69.65 	 -691.495 	
-4 	 1956 	 1639 	135.73 	 78.015 	 -677.635 	
-255 	 1863 	 1557 	148.855 	 92.96 	 -655.445 	
-736 	 1856 	 1377 	163.73 	 100.45 	 -629.195 	
-1299 	 1884 	 1154 	175.315 	 94.255 	 -596.05 	
-1503 	 1761 	 926 	182.91 	 78.19 	 -554.61 	
-1424 	 1593 	 761 	190.435 	 65.695 	 -511.49 	
-1277 	 1437 	 467 	198.905 	 63.245 	 -470.435 	
-1333 	 1294 	 188 	205.73 	 71.12 	 -431.06 	
-1601 	 1103 	 120 	210.385 	 81.2 	 -390.215 	
-1780 	 960 	 125 	215.81 	 84.875 	 -344.575 	
-1597 	 774 	 17 	221.06 	 79.03 	 -298.655 	
-1445 	 649 	 -70 	223.51 	 68.425 	 -260.015 	
-1519 	 591 	 -36 	223.93 	 57.47 	 -223.825 	
-1484 	 586 	 -82 	224.245 	 45.745 	 -184.205 	
-1313 	 586 	 -173 	223.265 	 35.735 	 -145.32 	
-1165 	 574 	 -237 	219.59 	 27.16 	 -110.985 	
-1126 	 609 	 -290 	215.39 	 21.49 	 -79.66 	
-1083 	 649 	 -344 	210.21 	 19.005 	 -48.475 	
-944 	 641 	 -391 	203.385 	 18.48 	 -18.515 	
-807 	 625 	 -417 	195.545 	 19.495 	 7.455 	
-742 	 665 	 -460 	187.075 	 20.965 	 30.03 	
-684 	 682 	 -482 	177.45 	 22.575 	 51.38 	
-565 	 678 	 -507 	167.685 	 24.045 	 71.365 	
-442 	 677 	 -545 	157.85 	 25.76 	 88.305 	
-377 	 684 	 -548 	147.455 	 27.65 	 102.06 	
-333 	 684 	 -511 	137.27 	 30.24 	 114.415 	
-245 	 688 	 -520 	128.17 	 33.845 	 125.825 	
-112 	 665 	 -576 	119.21 	 38.78 	 135.135 	
-4 	 611 	 -584 	110.25 	 45.43 	 141.785 	
58 	 572 	 -556 	102.13 	 52.92 	 146.895 	
110 	 557 	 -559 	95.13 	 59.885 	 151.2 	
154 	 537 	 -561 	88.55 	 65.94 	 154.525 	
197 	 505 	 -544 	82.67 	 70.91 	 156.38 	
232 	 485 	 -517 	77.595 	 75.145 	 157.045 	
267 	 470 	 -505 	73.255 	 79.485 	 156.87 	
319 	 457 	 -498 	69.405 	 83.755 	 156.065 	
355 	 435 	 -477 	66.045 	 88.06 	 154.385 	
365 	 437 	 -449 	63.105 	 92.4 	 151.76 	
380 	 446 	 -445 	60.795 	 95.9 	 149.1 	
380 	 445 	 -427 	58.73 	 99.54 	 146.09 	
403 	 435 	 -446 	56.805 	 102.585 	 142.24 	
394 	 428 	 -442 	55.335 	 106.4 	 138.215 	
403 	 437 	 -445 	54.565 	 110.6 	 134.435 	
433 	 453 	 -428 	53.69 	 115.92 	 129.99 	
419 	 478 	 -406 	53.06 	 123.13 	 124.635 	
388 	 493 	 -412 	52.955 	 132.02 	 119.525 	
394 	 483 	 -442 	52.815 	 142.24 	 115.08 	
400 	 460 	 -455 	52.5 	 153.545 	 110.075 	
381 	 442 	 -457 	52.885 	 165.025 	 104.65 	
352 	 435 	 -458 	53.69 	 175.7 	 99.785 	
333 	 425 	 -451 	54.32 	 185.185 	 95.095 	
302 	 425 	 -431 	55.265 	 193.095 	 90.44 	
262 	 435 	 -414 	56.525 	 199.255 	 86.275 	
229 	 445 	 -406 	57.855 	 203.56 	 82.67 	
191 	 448 	 -396 	59.185 	 206.675 	 79.52 	
155 	 437 	 -405 	60.76 	 208.32 	 76.58 	
123 	 421 	 -427 	62.37 	 209.09 	 73.92 	
66 	 380 	 -447 	63.98 	 209.3 	 71.75 	
9 	 324 	 -447 	65.03 	 209.09 	 69.965 	
-42 	 270 	 -436 	65.52 	 208.705 	 68.95 	
-70 	 235 	 -459 	66.605 	 207.725 	 68.81 	
-121 	 209 	 -529 	67.27 	 205.73 	 68.635 	
-162 	 71 	 -646 	64.96 	 201.355 	 69.72 	
-64 	 -190 	 -846 	58.38 	 193.13 	 77.07 	
358 	 -405 	 -1166 	45.605 	 180.32 	 94.15 	
1023 	 -63 	 -1597 	24.745 	 159.04 	 112.245 	
1449 	 1091 	 -2429 	-3.85 	 126.14 	 126.35 	
1375 	 2161 	 -2129 	-42.07 	 83.79 	 149.24 	
1589 	 2137 	 -988 	-90.265 	 10.185 	 188.23 	
2093 	 1900 	 -1041 	-134.015 	 -94.85 	 225.54 	
1515 	 1989 	 -1831 	-183.68 	 -216.685 	 245.98 	
780 	 1573 	 -2433 	-249.13 	 -340.935 	 280.14 	
1263 	 952 	 -3081 	-313.25 	 -438.13 	 336.35 	
2540 	 675 	 -3829 	-378.315 	 -478.66 	 387.135 	
3093 	 293 	 -3505 	-451.15 	 -465.78 	 413.875 	
2339 	 -27 	 -2661 	-513.205 	 -436.24 	 427.735 	
1217 	 -219 	 -2511 	-564.34 	 -420.805 	 449.47 	
930 	 -729 	 -2461 	-621.425 	 -427.455 	 478.975 	
1422 	 -1397 	 -2038 	-675.43 	 -441.7 	 495.005 	
1709 	 -1766 	 -2049 	-712.67 	 -439.495 	 486.64 	
1400 	 -1725 	 -2190 	-741.09 	 -398.02 	 465.395 	
1867 	 -1946 	 -2454 	-766.85 	 -309.61 	 442.96 	
2707 	 -2946 	 -2477 	-780.605 	 -161.42 	 397.11 	
3011 	 -4079 	 -2565 	-779.415 	 30.03 	 315.315 	
2727 	 -4516 	 -2372 	-771.05 	 232.155 	 214.725 	
1970 	 -4590 	 -1424 	-755.055 	 401.66 	 101.185 	
1104 	 -4624 	 217 	-716.45 	 495.18 	 -19.04 	
656 	 -4244 	 1525 	-652.26 	 495.425 	 -133.42 	
948 	 -3771 	 1959 	-574.945 	 426.65 	 -234.99 	
1595 	 -3214 	 2096 	-499.87 	 348.425 	 -322.14 	
2160 	 -2452 	 2467 	-428.295 	 304.955 	 -392.245 	
2384 	 -1794 	 3127 	-349.65 	 304.36 	 -446.11 	
2143 	 -964 	 3508 	-265.3 	 322.105 	 -488.285 	
1517 	 -69 	 3841 	-187.53 	 325.01 	 -519.645 	
717 	 673 	 4310 	-119.84 	 294.49 	 -534.835 	
95 	 1304 	 4399 	-59.01 	 232.505 	 -529.655 	
-141 	 1848 	 4060 	-8.82 	 158.865 	 -509.355 	
-124 	 2218 	 3635 	29.12 	 93.625 	 -483.98 	
-267 	 2438 	 3224 	59.955 	 52.185 	 -458.36 	
-600 	 2630 	 2800 	87.22 	 38.22 	 -427.21 	
-902 	 2597 	 2526 	111.055 	 41.65 	 -388.185 	
-1126 	 2368 	 2320 	132.965 	 46.62 	 -347.445 	
-1490 	 2177 	 2087 	152.705 	 43.26 	 -309.89 	
-1858 	 2008 	 1952 	169.19 	 30.275 	 -271.95 	
-1900 	 1825 	 1814 	185.99 	 14.7 	 -230.51 	
-1672 	 1598 	 1510 	204.19 	 6.51 	 -190.4 	
-1498 	 1354 	 1174 	220.01 	 9.66 	 -155.925 	
-1529 	 1163 	 1023 	233.345 	 20.72 	 -124.81 	
-1571 	 1061 	 951 	246.645 	 32.515 	 -93.485 	
-1444 	 934 	 912 	260.33 	 42.49 	 -62.51 	
-1237 	 802 	 769 	273.7 	 49.91 	 -35.245 	
-1083 	 688 	 566 	284.27 	 56.77 	 -11.69 	
-956 	 585 	 463 	290.885 	 63.245 	 10.57 	
-821 	 515 	 486 	296.625 	 69.335 	 31.36 	
-626 	 499 	 374 	302.435 	 72.94 	 49.735 	
-456 	 459 	 249 	305.445 	 74.235 	 65.485 	
-299 	 397 	 228 	305.095 	 72.31 	 78.82 	
-148 	 380 	 228 	304.675 	 67.305 	 90.09 	
-9 	 387 	 142 	303.73 	 59.92 	 99.435 	
118 	 366 	 47 	300.51 	 51.415 	 106.75 	
254 	 324 	 0 	295.54 	 42.875 	 112.14 	
394 	 302 	 -50 	290.78 	 35.665 	 115.465 	
538 	 326 	 -143 	285.6 	 30.8 	 116.655 	
660 	 345 	 -209 	279.265 	 28.875 	 115.675 	
730 	 355 	 -246 	272.755 	 29.715 	 113.365 	
790 	 373 	 -304 	266.805 	 32.69 	 110.46 	
859 	 388 	 -362 	260.12 	 37.45 	 106.47 	
894 	 393 	 -375 	252.98 	 42.98 	 100.905 	
875 	 388 	 -398 	246.575 	 49.07 	 94.71 	
873 	 396 	 -466 	240.625 	 55.195 	 89.04 	
915 	 383 	 -487 	234.045 	 61.25 	 82.985 	
952 	 386 	 -460 	227.78 	 68.11 	 75.67 	
916 	 402 	 -464 	222.6 	 75.25 	 68.18 	
859 	 422 	 -522 	217.525 	 82.95 	 61.145 	
823 	 413 	 -550 	212.1 	 90.58 	 54.635 	
809 	 392 	 -525 	207.06 	 97.615 	 47.95 	
777 	 399 	 -512 	203 	 103.67 	 41.055 	
751 	 450 	 -507 	199.185 	 108.15 	 34.335 	
785 	 464 	 -507 	195.265 	 110.81 	 28.455 	
814 	 487 	 -440 	191.625 	 112.14 	 22.295 	
772 	 513 	 -442 	188.23 	 111.265 	 16.45 	
775 	 540 	 -457 	184.905 	 108.5 	 12.04 	
785 	 559 	 -425 	181.79 	 104.58 	 7.7 	
760 	 568 	 -416 	179.095 	 100.205 	 2.59 	
727 	 579 	 -463 	176.785 	 96.705 	 -2.065 	
708 	 549 	 -480 	174.37 	 94.5 	 -5.81 	
728 	 528 	 -505 	172.55 	 94.29 	 -10.71 	
697 	 517 	 -536 	171.29 	 96.355 	 -15.785 	
679 	 506 	 -558 	169.785 	 100.03 	 -20.16 	
711 	 489 	 -590 	168.805 	 104.895 	 -24.395 	
681 	 518 	 -544 	168.28 	 112.175 	 -29.47 	
646 	 553 	 -526 	167.44 	 120.82 	 -34.3 	
627 	 549 	 -537 	166.985 	 130.375 	 -37.73 	
645 	 521 	 -557 	166.985 	 140.245 	 -40.705 	
643 	 478 	 -608 	166.845 	 148.82 	 -44.1 	
652 	 420 	 -548 	166.635 	 154.42 	 -46.97 	
431 	 431 	 -548 	168.42 	 160.475 	 -49.805 	
498 	 461 	 -676 	169.925 	 161.945 	 -52.325 	
477 	 437 	 -627 	169.925 	 164.535 	 -53.48 	
429 	 430 	 -510 	172.235 	 166.95 	 -54.635 	
451 	 444 	 -592 	175 	 167.965 	 -56.35 	
345 	 432 	 -650 	176.295 	 169.61 	 -57.68 	
225 	 382 	 -600 	177.555 	 171.01 	 -58.31 	
175 	 260 	 -594 	179.55 	 170.1 	 -58.8 	
-23 	 66 	 -662 	180.565 	 167.09 	 -61.075 	
-448 	 -109 	 -707 	180.425 	 159.495 	 -67.83 	
-836 	 -348 	 -792 	178.85 	 140.91 	 -73.01 	
-882 	 -801 	 -1179 	176.435 	 102.655 	 -70.455 	
-548 	 -1087 	 -1775 	162.75 	 41.02 	 -59.36 	
-84 	 -752 	 -2101 	131.985 	 -40.215 	 -39.515 	
981 	 723 	 -2568 	95.515 	 -129.955 	 -20.3 	
1165 	 1829 	 -2777 	55.23 	 -192.15 	 -5.145 	
806 	 1957 	 -2889 	7.385 	 -221.095 	 25.025 	
831 	 1800 	 -3391 	-44.45 	 -219.59 	 71.785 	
973 	 1353 	 -3991 	-107.905 	 -195.685 	 115.885 	
822 	 970 	 -4018 	-187.04 	 -169.085 	 152.845 	
525 	 629 	 -3628 	-265.72 	 -154.14 	 195.37 	
477 	 465 	 -3549 	-341.635 	 -160.195 	 247.31 	
476 	 93 	 -3262 	-423.465 	 -187.74 	 300.37 	
389 	 -394 	 -2683 	-502.635 	 -237.79 	 349.51 	
79 	 -751 	 -2378 	-568.995 	 -302.12 	 397.565 	
-102 	 -1109 	 -2403 	-629.02 	 -368.41 	 449.82 	
92 	 -1549 	 -2115 	-683.34 	 -419.615 	 502.215 	
447 	 -1792 	 -1692 	-723.625 	 -448.455 	 544.25 	
546 	 -1617 	 -1346 	-748.3 	 -449.82 	 573.65 	
659 	 -1381 	 -1132 	-762.16 	 -424.83 	 594.825 	
971 	 -1584 	 -1249 	-766.15 	 -371.805 	 606.445 	
1659 	 -2473 	 -1440 	-761.81 	 -284.41 	 606.095 	
2485 	 -3734 	 -1474 	-747.95 	 -158.655 	 582.61 	
2818 	 -3954 	 -1338 	-728.98 	 -1.75 	 529.585 	
2581 	 -3740 	 -804 	-710.22 	 154.175 	 459.095 	
2305 	 -3537 	 263 	-683.095 	 274.155 	 377.58 	
1821 	 -3291 	 1265 	-635.74 	 333.97 	 284.935 	
1469 	 -3160 	 1926 	-571.795 	 332.78 	 189.7 	
1603 	 -2764 	 2064 	-506.45 	 288.995 	 99.26 	
1924 	 -2395 	 2617 	-435.96 	 236.075 	 15.995 	
2401 	 -1693 	 2783 	-357.665 	 196.035 	 -60.27 	
2791 	 -932 	 2784 	-281.68 	 185.535 	 -128.87 	
3041 	 -438 	 3033 	-209.51 	 202.405 	 -189.945 	
2852 	 164 	 3237 	-136.92 	 231.7 	 -245.595 	
2258 	 760 	 3434 	-68.74 	 250.46 	 -290.57 	
1625 	 1209 	 3664 	-7.14 	 240.485 	 -320.705 	
1222 	 1624 	 3662 	48.3 	 199.71 	 -337.785 	
1090 	 2032 	 3370 	95.445 	 142.205 	 -345.835 	
1112 	 2316 	 2946 	133.28 	 88.34 	 -347.655 	
1084 	 2488 	 2511 	164.115 	 52.99 	 -343.805 	
983 	 2614 	 2065 	189.385 	 38.64 	 -334.11 	
822 	 2557 	 1786 	209.265 	 39.48 	 -320.39 	
589 	 2412 	 1624 	226.485 	 44.8 	 -305.83 	
272 	 2284 	 1468 	242.655 	 47.985 	 -289.625 	
49 	 2082 	 1301 	256.935 	 45.325 	 -270.55 	
-63 	 1810 	 1146 	269.01 	 37.17 	 -251.265 	
-200 	 1552 	 1009 	280.28 	 26.355 	 -234.255 	
-341 	 1307 	 800 	291.165 	 16.905 	 -218.505 	
-365 	 1066 	 534 	299.88 	 12.495 	 -202.825 	
-251 	 831 	 372 	306.495 	 15.995 	 -188.93 	
-183 	 648 	 283 	312.795 	 26.565 	 -177.905 	
-200 	 582 	 172 	318.78 	 38.955 	 -168.21 	
-197 	 529 	 103 	323.015 	 48.37 	 -157.185 	
-83 	 460 	 78 	325.43 	 52.045 	 -145.67 	
22 	 425 	 40 	326.305 	 50.015 	 -135.975 	
33 	 457 	 -55 	325.605 	 44.485 	 -126.805 	
66 	 471 	 -155 	322.735 	 36.925 	 -116.13 	
148 	 436 	 -245 	318.255 	 29.54 	 -105.7 	
214 	 421 	 -358 	312.62 	 24.15 	 -97.09 	
242 	 442 	 -467 	305.935 	 21.945 	 -89.355 	
289 	 449 	 -525 	297.885 	 23.135 	 -81.655 	
381 	 463 	 -556 	289.415 	 27.475 	 -74.795 	
423 	 495 	 -597 	280.56 	 34.93 	 -69.265 	
427 	 517 	 -651 	271.18 	 43.96 	 -64.155 	
426 	 498 	 -688 	261.38 	 53.2 	 -59.045 	
423 	 481 	 -699 	251.545 	 61.46 	 -54.53 	
399 	 472 	 -690 	241.955 	 67.69 	 -50.785 	
360 	 485 	 -673 	232.54 	 71.68 	 -47.635 	
346 	 501 	 -636 	223.405 	 73.64 	 -44.765 	
345 	 511 	 -607 	214.34 	 74.2 	 -42.595 	
306 	 521 	 -604 	205.45 	 74.34 	 -41.37 	
280 	 529 	 -624 	197.26 	 74.34 	 -40.355 	
303 	 524 	 -630 	189.14 	 74.62 	 -39.27 	
314 	 506 	 -620 	181.545 	 76.195 	 -39.095 	
315 	 509 	 -631 	174.72 	 79.03 	 -39.585 	
317 	 542 	 -630 	167.93 	 83.475 	 -39.97 	
324 	 555 	 -598 	161.525 	 89.145 	 -40.53 	
319 	 565 	 -592 	156.1 	 96.39 	 -41.755 	
296 	 573 	 -629 	151.2 	 104.02 	 -42.385 	
300 	 539 	 -634 	145.915 	 111.965 	 -42.84 	
311 	 505 	 -619 	141.435 	 120.12 	 -43.96 	
273 	 493 	 -610 	138.11 	 128.415 	 -45.675 	
219 	 496 	 -648 	135.625 	 135.905 	 -47.075 	
208 	 492 	 -644 	132.895 	 143.92 	 -47.985 	
221 	 461 	 -626 	129.22 	 151.48 	 -48.86 	
226 	 450 	 -549 	127.61 	 160.51 	 -50.54 	
216 	 480 	 -608 	127.12 	 170.8 	 -52.325 	
216 	 496 	 -652 	125.16 	 181.895 	 -53.515 	
183 	 471 	 -596 	123.165 	 193.76 	 -54.635 	
167 	 446 	 -575 	122.955 	 205.835 	 -56.035 	
133 	 447 	 -629 	123.235 	 218.155 	 -57.295 	
91 	 426 	 -627 	122.325 	 230.72 	 -58.31 	
97 	 370 	 -541 	121.695 	 241.43 	 -59.675 	
-97 	 280 	 -477 	122.85 	 252.91 	 -60.83 	
-107 	 142 	 -554 	122.045 	 258.335 	 -62.09 	
-240 	 -175 	 -594 	120.61 	 260.575 	 -62.58 	
-452 	 -480 	 -760 	121.94 	 256.165 	 -63.875 	
-671 	 -808 	 -917 	119.805 	 242.655 	 -67.445 	
-857 	 -1228 	 -919 	110.845 	 216.72 	 -68.845 	
-871 	 -1358 	 -988 	99.645 	 170.38 	 -64.75 	
-589 	 -680 	 -1641 	84.455 	 98.7 	 -59.92 	
-583 	 236 	 -1934 	54.985 	 17.815 	 -56.175 	
-518 	 897 	 -1775 	11.375 	 -62.09 	 -42.035 	
-98 	 1344 	 -1857 	-35.84 	 -122.22 	 -13.65 	
665 	 1606 	 -2549 	-88.2 	 -153.23 	 15.225 	
1014 	 1646 	 -3232 	-151.9 	 -149.52 	 38.36 	
1043 	 1681 	 -3416 	-224.56 	 -126.28 	 67.445 	
1221 	 1657 	 -3325 	-300.895 	 -103.74 	 107.59 	
1432 	 1587 	 -3100 	-377.65 	 -97.09 	 149.8 	
1371 	 1560 	 -2772 	-456.785 	 -124.005 	 190.19 	
1182 	 1369 	 -2320 	-534.38 	 -185.57 	 234.43 	
976 	 1104 	 -1914 	-602.63 	 -268.1 	 284.69 	
1009 	 848 	 -1890 	-663.04 	 -351.995 	 339.325 	
1192 	 596 	 -1564 	-715.96 	 -415.66 	 390.775 	
1339 	 358 	 -1260 	-752.22 	 -455.525 	 433.055 	
1365 	 24 	 -1373 	-770.63 	 -471.975 	 468.965 	
1576 	 -524 	 -1491 	-780.99 	 -466.83 	 500.395 	
2152 	 -1689 	 -1052 	-776.825 	 -435.33 	 519.855 	
2848 	 -2829 	 -922 	-743.12 	 -367.29 	 517.3 	
3060 	 -3259 	 -1398 	-697.795 	 -253.925 	 488.6 	
2732 	 -3426 	 -1290 	-663.81 	 -111.93 	 440.615 	
2502 	 -3787 	 -102 	-619.255 	 20.825 	 380.66 	
2013 	 -3688 	 752 	-554.47 	 111.475 	 300.335 	
1156 	 -3348 	 1296 	-481.845 	 142.765 	 206.185 	
802 	 -2948 	 1870 	-409.78 	 124.075 	 122.955 	
1362 	 -2629 	 2530 	-331.73 	 82.075 	 45.71 	
1988 	 -1920 	 2519 	-246.61 	 52.395 	 -33.775 	
2429 	 -1176 	 2283 	-172.48 	 50.365 	 -109.095 	
2553 	 -631 	 2724 	-108.08 	 72.975 	 -175.455 	
2377 	 35 	 3091 	-43.015 	 100.765 	 -233.45 	
1825 	 759 	 3233 	18.27 	 114.38 	 -283.255 	
1432 	 1392 	 3180 	69.685 	 102.865 	 -319.305 	
1436 	 1904 	 2945 	111.02 	 75.95 	 -341.915 	
1567 	 2224 	 2574 	143.85 	 50.855 	 -355.705 	
1490 	 2503 	 2134 	169.155 	 35.49 	 -362.88 	
1229 	 2624 	 1840 	186.865 	 25.69 	 -361.585 	
920 	 2584 	 1722 	201.11 	 12.915 	 -352.205 	
669 	 2531 	 1460 	214.27 	 -7.77 	 -337.96 	
446 	 2417 	 1177 	224 	 -33.635 	 -321.58 	
225 	 2184 	 962 	231.63 	 -57.75 	 -303.135 	
83 	 1979 	 662 	240.065 	 -73.745 	 -282.52 	
25 	 1745 	 355 	247.87 	 -78.05 	 -261.17 	
-106 	 1435 	 143 	254.625 	 -70.945 	 -241.5 	
-292 	 1216 	 6 	261.345 	 -56 	 -222.985 	
-410 	 1017 	 -10 	268.485 	 -37.94 	 -203.945 	
-441 	 852 	 -30 	276.29 	 -21.07 	 -184.87 	
-428 	 760 	 -73 	282.485 	 -8.89 	 -166.145 	
-468 	 694 	 -38 	286.965 	 -3.43 	 -149.31 	
-576 	 655 	 -34 	290.955 	 -3.85 	 -133.28 	
-613 	 639 	 -86 	293.58 	 -6.895 	 -115.64 	
-516 	 558 	 -181 	294.07 	 -10.71 	 -98.7 	
-452 	 517 	 -262 	292.915 	 -11.41 	 -84.455 	
-432 	 499 	 -326 	289.94 	 -8.995 	 -72.345 	
-432 	 503 	 -359 	286.055 	 -2.975 	 -60.83 	
-405 	 499 	 -376 	281.05 	 5.39 	 -48.615 	
-309 	 480 	 -435 	274.295 	 14.245 	 -37.1 	
-276 	 488 	 -483 	267.015 	 23.415 	 -27.895 	
-281 	 518 	 -549 	259.455 	 31.71 	 -19.425 	
-210 	 541 	 -578 	250.46 	 39.305 	 -10.185 	
-99 	 545 	 -569 	240.905 	 46.55 	 -1.75 	
-37 	 542 	 -577 	231 	 53.515 	 5.25 	
0 	 599 	 -602 	220.08 	 58.52 	 11.865 	
52 	 638 	 -583 	208.635 	 61.11 	 18.2 	
76 	 640 	 -568 	197.68 	 61.075 	 23.485 	
99 	 636 	 -611 	187.04 	 58.52 	 28.455 	
147 	 611 	 -645 	175.77 	 54.39 	 33.075 	
202 	 584 	 -639 	164.85 	 49.665 	 36.505 	
237 	 577 	 -651 	154.84 	 45.57 	 38.815 	
270 	 591 	 -697 	145.285 	 42.77 	 40.775 	
318 	 591 	 -714 	135.485 	 42.14 	 42.35 	
353 	 581 	 -711 	126.63 	 44.24 	 42.98 	
387 	 586 	 -729 	118.895 	 48.79 	 43.33 	
409 	 602 	 -743 	111.265 	 55.895 	 43.155 	
419 	 605 	 -730 	104.055 	 64.4 	 42.49 	
452 	 590 	 -723 	97.545 	 74.095 	 41.265 	
447 	 589 	 -693 	90.93 	 84.91 	 40.11 	
465 	 598 	 -630 	84.98 	 95.48 	 38.815 	
459 	 609 	 -630 	80.57 	 105.91 	 36.89 	
449 	 611 	 -656 	75.705 	 114.94 	 35.07 	
431 	 594 	 -603 	70.77 	 122.675 	 33.355 	
442 	 567 	 -569 	67.445 	 128.485 	 31.535 	
436 	 574 	 -574 	64.89 	 133.175 	 29.05 	
422 	 576 	 -564 	61.81 	 136.815 	 27.195 	
408 	 568 	 -505 	59.01 	 140.42 	 25.095 	
385 	 563 	 -478 	57.61 	 144.305 	 22.785 	
386 	 560 	 -503 	56.07 	 148.47 	 20.44 	
355 	 536 	 -499 	54.32 	 153.51 	 17.745 	
352 	 525 	 -455 	53.55 	 160.055 	 14.63 	
310 	 532 	 -479 	53.06 	 168.175 	 11.375 	
330 	 529 	 -458 	52.325 	 176.575 	 8.26 	
214 	 496 	 -556 	52.885 	 189.245 	 6.16 	
172 	 411 	 -569 	53.375 	 200.865 	 1.68 	
17 	 304 	 -420 	52.29 	 217.91 	 -4.095 	
-68 	 242 	 -467 	54.425 	 235.2 	 -6.685 	
-132 	 247 	 -595 	56.875 	 251.72 	 -10.92 	
-295 	 203 	 -660 	57.68 	 267.75 	 -17.465 	
-501 	 114 	 -628 	59.535 	 281.54 	 -23.695 	
-591 	 -7 	 -671 	63.665 	 292.705 	 -27.755 	
-663 	 -181 	 -725 	67.445 	 302.05 	 -32.935 	
-796 	 -358 	 -712 	70.595 	 309.47 	 -39.27 	
-950 	 -496 	 -584 	74.095 	 314.3 	 -44.87 	
-1034 	 -637 	 -520 	76.79 	 315.35 	 -49.42 	
-1105 	 -718 	 -417 	78.05 	 311.5 	 -55.86 	
-1203 	 -804 	 -352 	77.07 	 303.73 	 -61.635 	
-1013 	 -964 	 -135 	70.455 	 289.73 	 -60.235 	
-473 	 -906 	 19 	54.425 	 269.815 	 -52.43 	
332 	 32 	 12 	31.08 	 241.955 	 -40.18 	
1503 	 1668 	 -445 	1.82 	 192.64 	 -27.44 	
1726 	 3148 	 -1611 	-34.3 	 130.025 	 -11.445 	
1419 	 3360 	 -1368 	-91.42 	 58.765 	 27.475 	
2470 	 3047 	 -152 	-147.21 	 -30.94 	 81.48 	
3414 	 3114 	 -1000 	-186.27 	 -120.19 	 118.405 	
3117 	 3418 	 -1906 	-245.7 	 -204.715 	 144.865 	
3315 	 2572 	 -2049 	-321.65 	 -290.955 	 190.785 	
3909 	 2255 	 -2092 	-383.775 	 -362.32 	 236.6 	
4004 	 2675 	 -2159 	-437.675 	 -412.23 	 274.68 	
3847 	 2556 	 -1926 	-492.905 	 -449.33 	 314.615 	
3481 	 1997 	 -1779 	-535.325 	 -481.215 	 351.75 	
2821 	 1359 	 -2019 	-565.985 	 -517.02 	 380.835 	
2517 	 458 	 -2393 	-595.945 	 -551.81 	 403.095 	
2379 	 -642 	 -2316 	-617.295 	 -561.995 	 411.95 	
2533 	 -1466 	 -2172 	-620.69 	 -531.23 	 405.93 	
2935 	 -2406 	 -2242 	-612.605 	 -449.365 	 383.495 	
2941 	 -2619 	 -2353 	-602.735 	 -320.005 	 335.265 	
2410 	 -2769 	 -1808 	-596.085 	 -167.335 	 268.695 	
1982 	 -3050 	 -866 	-583.065 	 -23.275 	 189.665 	
1338 	 -3334 	 -114 	-553.595 	 88.095 	 92.995 	
900 	 -3297 	 240 	-515.795 	 147.77 	 -8.05 	
788 	 -3287 	 955 	-475.545 	 157.325 	 -106.89 	
842 	 -3107 	 1678 	-425.215 	 128.205 	 -202.09 	
1023 	 -2529 	 1725 	-366.31 	 85.365 	 -285.425 	
1463 	 -1939 	 1701 	-311.885 	 55.265 	 -354.655 	
1796 	 -1526 	 2092 	-259.175 	 51.625 	 -418.53 	
1591 	 -868 	 2366 	-199.64 	 68.635 	 -475.44 	
1148 	 -108 	 2384 	-140.595 	 85.575 	 -515.2 	
744 	 460 	 2522 	-90.79 	 83.65 	 -536.62 	
366 	 1088 	 2747 	-46.97 	 56.595 	 -546.175 	
237 	 1607 	 2707 	-4.97 	 14.875 	 -542.01 	
207 	 2092 	 2201 	31.43 	 -23.695 	 -526.68 	
36 	 2259 	 1760 	58.1 	 -42.35 	 -502.25 	
-338 	 2335 	 1429 	77.595 	 -44.45 	 -471.38 	
-1025 	 2310 	 1447 	95.55 	 -34.195 	 -435.26 	
-1442 	 2318 	 1315 	114.03 	 -27.44 	 -390.39 	
-1634 	 2181 	 1163 	129.85 	 -26.635 	 -342.3 	
-1792 	 1976 	 1024 	142.38 	 -32.025 	 -296.52 	
-2113 	 1758 	 951 	154 	 -40.46 	 -251.02 	
-2268 	 1572 	 804 	164.29 	 -52.43 	 -201.495 	
-2178 	 1245 	 696 	173.53 	 -63.91 	 -152.67 	
-2116 	 1030 	 553 	182.175 	 -71.925 	 -109.06 	
-2050 	 884 	 446 	190.225 	 -75.005 	 -68.04 	
-1830 	 738 	 438 	198.135 	 -70.77 	 -28.315 	
-1515 	 581 	 391 	207.655 	 -59.605 	 7.42 	
-1307 	 518 	 235 	216.93 	 -44.17 	 37.8 	
-1223 	 454 	 204 	222.81 	 -28.595 	 65.555 	
-1122 	 350 	 299 	227.955 	 -17.885 	 91.945 	
-941 	 289 	 295 	233.905 	 -13.86 	 115.535 	
-749 	 283 	 183 	238.14 	 -15.12 	 134.68 	
-614 	 264 	 124 	239.925 	 -18.445 	 149.905 	
-469 	 255 	 84 	240.905 	 -21.07 	 162.68 	
-264 	 276 	 -24 	241.535 	 -19.985 	 173.11 	
-44 	 294 	 -168 	239.855 	 -13.86 	 179.97 	
109 	 301 	 -237 	236.075 	 -2.905 	 183.645 	
229 	 319 	 -280 	231.525 	 10.43 	 185.745 	
360 	 334 	 -358 	226.24 	 24.325 	 186.41 	
474 	 358 	 -428 	219.17 	 37.835 	 184.765 	
575 	 365 	 -456 	211.295 	 50.015 	 181.685 	
686 	 370 	 -472 	203.315 	 61.215 	 177.87 	
774 	 389 	 -512 	195.37 	 71.75 	 172.655 	
806 	 406 	 -550 	186.655 	 81.48 	 166.11 	
828 	 405 	 -549 	177.555 	 89.95 	 159.18 	
846 	 404 	 -536 	169.225 	 96.6 	 151.9 	
858 	 401 	 -575 	161.805 	 101.01 	 143.885 	
915 	 383 	 -624 	154.455 	 103.74 	 135.38 	
986 	 382 	 -643 	147.035 	 105.07 	 126.035 	
992 	 390 	 -624 	140.56 	 106.19 	 116.935 	
1028 	 419 	 -647 	135.415 	 106.505 	 109.235 	
1067 	 419 	 -650 	130.13 	 105.91 	 101.57 	
1067 	 439 	 -607 	125.02 	 103.775 	 92.995 	
1048 	 456 	 -583 	120.505 	 99.75 	 85.155 	
1098 	 486 	 -592 	116.34 	 94.675 	 78.89 	
1082 	 514 	 -617 	112.105 	 88.655 	 71.365 	
1009 	 555 	 -629 	108.395 	 83.37 	 61.985 	
999 	 580 	 -624 	105 	 77.42 	 55.93 	
1060 	 585 	 -568 	101.325 	 71.54 	 50.365 	
1064 	 613 	 -549 	98.49 	 66.325 	 41.895 	
975 	 640 	 -596 	95.865 	 61.635 	 33.46 	
917 	 629 	 -626 	92.82 	 57.785 	 27.615 	
952 	 579 	 -630 	90.16 	 55.125 	 21.385 	
930 	 565 	 -651 	88.9 	 54.285 	 12.845 	
834 	 593 	 -655 	87.29 	 55.965 	 5.04 	
839 	 582 	 -655 	85.155 	 58.905 	 -0.525 	
848 	 569 	 -619 	84.175 	 64.085 	 -7.14 	
828 	 588 	 -644 	83.895 	 70.665 	 -14.945 	
776 	 617 	 -630 	83.09 	 78.61 	 -21.14 	
786 	 606 	 -577 	81.935 	 87.01 	 -25.655 	
796 	 598 	 -541 	82.005 	 95.515 	 -31.185 	
720 	 611 	 -552 	82.53 	 103.705 	 -36.82 	
673 	 588 	 -559 	82.565 	 111.125 	 -40.6 	
666 	 554 	 -530 	83.02 	 117.495 	 -43.75 	
637 	 536 	 -519 	84.595 	 123.095 	 -47.565 	
583 	 540 	 -533 	86.24 	 127.715 	 -50.575 	
610 	 493 	 -514 	87.045 	 129.85 	 -52.08 	
496 	 491 	 -477 	89.95 	 132.125 	 -53.97 	
460 	 520 	 -538 	92.61 	 131.985 	 -56.665 	
406 	 503 	 -534 	94.5 	 132.335 	 -57.015 	
414 	 459 	 -500 	97.545 	 132.72 	 -56.735 	
399 	 457 	 -539 	100.87 	 133.28 	 -58.59 	
295 	 483 	 -561 	103.425 	 134.54 	 -60.34 	
219 	 456 	 -544 	106.05 	 135.87 	 -60.095 	
168 	 370 	 -553 	109.025 	 137.305 	 -60.585 	
8 	 284 	 -611 	111.44 	 138.81 	 -63.175 	
-278 	 181 	 -673 	113.435 	 139.055 	 -65.975 	
-528 	 64 	 -707 	114.485 	 135.975 	 -68.845 	
-613 	 -56 	 -740 	113.925 	 127.085 	 -71.33 	
-577 	 -194 	 -759 	109.97 	 108.92 	 -71.225 	
-110 	 -447 	 -982 	97.72 	 75.425 	 -62.545 	
715 	 -614 	 -1918 	76.65 	 28.84 	 -35.105 	
1873 	 504 	 -2789 	48.055 	 -19.285 	 -12.075 	
1931 	 1759 	 -2764 	7.455 	 -52.395 	 -3.99 	
1076 	 2035 	 -1979 	-37.59 	 -80.57 	 22.33 	
993 	 1921 	 -1950 	-80.22 	 -121.345 	 72.275 	
1278 	 1576 	 -2891 	-133.42 	 -173.145 	 112 	
1112 	 1353 	 -3191 	-204.19 	 -219.415 	 140.455 	
1327 	 1259 	 -3193 	-277.095 	 -253.05 	 183.33 	
1989 	 991 	 -3234 	-345.24 	 -265.23 	 235.655 	
2264 	 491 	 -3212 	-413.315 	 -270.2 	 276.955 	
1518 	 61 	 -2889 	-481.495 	 -289.835 	 306.39 	
572 	 -321 	 -2472 	-544.32 	 -334.425 	 342.265 	
537 	 -706 	 -2278 	-597.87 	 -384.51 	 388.045 	
1231 	 -1046 	 -2216 	-641.235 	 -409.29 	 423.43 	
1413 	 -1278 	 -2287 	-674.205 	 -390.635 	 434.385 	
1123 	 -1652 	 -2435 	-701.015 	 -331.73 	 435.68 	
1160 	 -2201 	 -2253 	-724.885 	 -241.675 	 435.82 	
1768 	 -2579 	 -1812 	-738.78 	 -133.875 	 417.48 	
2077 	 -3129 	 -1583 	-737.73 	 -13.755 	 371.875 	
1807 	 -3571 	 -1526 	-732.025 	 107.835 	 309.05 	
1695 	 -3712 	 -1008 	-726.11 	 217.455 	 243.39 	
1749 	 -3792 	 -30 	-707.21 	 297.15 	 170.31 	
1436 	 -3504 	 757 	-670.32 	 332.535 	 82.495 	
997 	 -2957 	 1467 	-625.24 	 318.675 	 -4.34 	
1090 	 -2594 	 2140 	-572.005 	 270.095 	 -76.895 	
1583 	 -2105 	 2421 	-507.92 	 212.8 	 -139.965 	
2055 	 -1510 	 2472 	-442.12 	 170.03 	 -198.52 	
2225 	 -953 	 2609 	-379.575 	 148.26 	 -250.74 	
2159 	 -436 	 2838 	-316.505 	 144.725 	 -292.845 	
1969 	 142 	 3026 	-252.63 	 151.34 	 -325.99 	
1685 	 627 	 3170 	-190.68 	 157.885 	 -352.24 	
1241 	 1022 	 3292 	-132.055 	 156.205 	 -371.98 	
711 	 1321 	 3289 	-77.595 	 142.03 	 -381.22 	
344 	 1499 	 3144 	-29.19 	 117.11 	 -380.38 	
148 	 1671 	 2939 	12.355 	 89.53 	 -375.55 	
18 	 1870 	 2689 	49.385 	 68.18 	 -368.655 	
-159 	 1941 	 2483 	83.125 	 58.38 	 -356.685 	
-284 	 1955 	 2218 	114.17 	 56.315 	 -339.605 	
-391 	 1939 	 1959 	140.805 	 55.615 	 -320.95 	
-580 	 1856 	 1869 	162.575 	 50.085 	 -302.33 	
-769 	 1740 	 1805 	183.12 	 38.185 	 -281.155 	
-797 	 1666 	 1648 	202.965 	 21.805 	 -256.865 	
-696 	 1524 	 1442 	220.045 	 4.55 	 -232.785 	
-636 	 1352 	 1246 	234.745 	 -11.025 	 -212.1 	
-683 	 1240 	 1079 	247.205 	 -22.855 	 -193.06 	
-688 	 1098 	 929 	258.58 	 -29.645 	 -173.25 	
-623 	 923 	 696 	268.905 	 -30.485 	 -154.875 	
-568 	 787 	 464 	276.71 	 -23.8 	 -139.72 	
-485 	 694 	 352 	282.765 	 -10.115 	 -126.455 	
-406 	 595 	 255 	288.05 	 6.93 	 -113.435 	
-337 	 547 	 99 	291.62 	 22.54 	 -101.115 	
-333 	 504 	 10 	292.53 	 33.18 	 -90.825 	
-314 	 493 	 -46 	291.095 	 36.575 	 -81.27 	
-217 	 496 	 -91 	288.295 	 35.105 	 -70.525 	
-22 	 486 	 -194 	283.5 	 30.31 	 -61.04 	
60 	 500 	 -317 	277.095 	 24.71 	 -54.6 	
52 	 483 	 -377 	268.975 	 18.235 	 -48.055 	
116 	 460 	 -408 	259.42 	 10.045 	 -41.475 	
214 	 439 	 -456 	250.005 	 1.68 	 -36.75 	
273 	 439 	 -540 	240.065 	 -5.425 	 -33.915 	
322 	 429 	 -615 	229.145 	 -10.43 	 -31.78 	
338 	 362 	 -703 	218.05 	 -11.795 	 -30.625 	
327 	 325 	 -817 	206.71 	 -7.455 	 -30.87 	
358 	 337 	 -880 	195.335 	 3.535 	 -31.675 	
437 	 346 	 -894 	184.135 	 21.14 	 -32.97 	
501 	 387 	 -898 	173.39 	 44.415 	 -35.105 	
515 	 465 	 -889 	163.065 	 69.825 	 -37.415 	
489 	 530 	 -857 	152.355 	 93.52 	 -39.165 	
460 	 570 	 -786 	141.4 	 112.385 	 -40.32 	
438 	 598 	 -713 	130.655 	 124.635 	 -41.16 	
403 	 637 	 -654 	120.155 	 129.78 	 -42.14 	
355 	 678 	 -595 	109.655 	 127.96 	 -43.05 	
333 	 727 	 -532 	99.4 	 120.925 	 -43.645 	
335 	 769 	 -502 	89.845 	 110.39 	 -44.24 	
361 	 805 	 -497 	80.29 	 98.91 	 -45.325 	
380 	 831 	 -493 	70.945 	 88.34 	 -46.41 	
417 	 842 	 -522 	62.615 	 80.01 	 -47.39 	
462 	 840 	 -557 	54.845 	 74.795 	 -48.3 	
499 	 842 	 -580 	47.32 	 73.185 	 -49.875 	
496 	 848 	 -577 	40.53 	 74.62 	 -51.94 	
493 	 852 	 -579 	34.755 	 78.26 	 -53.48 	
500 	 842 	 -592 	29.47 	 83.405 	 -55.16 	
494 	 831 	 -581 	24.745 	 89.565 	 -57.435 	
464 	 830 	 -545 	20.755 	 95.97 	 -59.955 	
443 	 843 	 -511 	17.43 	 102.095 	 -61.845 	
417 	 855 	 -479 	14.63 	 107.695 	 -63.7 	
397 	 860 	 -449 	12.355 	 112.595 	 -65.73 	
373 	 873 	 -402 	10.43 	 116.865 	 -67.935 	
352 	 894 	 -359 	9.1 	 120.365 	 -69.965 	
317 	 893 	 -343 	8.33 	 123.62 	 -71.96 	
297 	 866 	 -361 	8.085 	 126.28 	 -73.395 	
277 	 818 	 -362 	8.05 	 128.835 	 -74.865 	
264 	 770 	 -357 	8.645 	 130.865 	 -76.44 	
244 	 745 	 -347 	9.975 	 132.58 	 -77.805 	
221 	 734 	 -339 	11.69 	 133.91 	 -78.89 	
207 	 729 	 -335 	13.58 	 134.925 	 -79.66 	
192 	 720 	 -329 	15.75 	 135.45 	 -80.29 	
172 	 712 	 -328 	18.235 	 135.765 	 -80.85 	
153 	 696 	 -327 	20.825 	 135.59 	 -81.235 	
136 	 702 	 -317 	23.555 	 134.89 	 -81.34 	
119 	 721 	 -294 	26.32 	 133.91 	 -81.48 	
105 	 742 	 -273 	29.155 	 132.545 	 -81.34 	
93 	 768 	 -267 	31.955 	 131.145 	 -80.955 	
88 	 781 	 -257 	34.685 	 129.92 	 -80.605 	
77 	 797 	 -246 	37.31 	 129.255 	 -80.08 	
55 	 809 	 -254 	40.11 	 129.29 	 -79.485 	
22 	 816 	 -266 	42.945 	 130.27 	 -78.89 	
-4 	 814 	 -277 	45.71 	 132.335 	 -78.085 	
-20 	 795 	 -298 	48.65 	 135.59 	 -77.21 	
-32 	 766 	 -340 	51.87 	 139.545 	 -76.3 	
-55 	 734 	 -380 	55.195 	 144.235 	 -75.425 	
-93 	 688 	 -409 	58.835 	 149.73 	 -74.34 	
-145 	 621 	 -434 	62.545 	 156.135 	 -73.29 	
-232 	 529 	 -470 	66.22 	 163.45 	 -72.24 	
-356 	 421 	 -547 	70.14 	 171.71 	 -71.365 	
-460 	 299 	 -653 	74.55 	 181.125 	 -70.21 	
-558 	 179 	 -760 	78.715 	 192.36 	 -69.195 	
-675 	 87 	 -844 	82.88 	 205.415 	 -67.865 	
-689 	 66 	 -1028 	88.445 	 220.15 	 -65.975 	
-579 	 45 	 -1138 	91.245 	 238.315 	 -62.3 	
-397 	 -128 	 -1259 	88.725 	 262.745 	 -53.025 	
12 	 -207 	 -1336 	84.42 	 296.52 	 -37.94 	
532 	 51 	 -1453 	71.61 	 339.92 	 -17.675 	
1108 	 1005 	 -2096 	49.21 	 377.09 	 10.78 	
1521 	 2619 	 -2236 	19.285 	 385.14 	 43.715 	
1095 	 3676 	 -1157 	-20.93 	 332.745 	 73.29 	
-369 	 3521 	 376 	-67.06 	 193.655 	 112.49 	
-1107 	 3272 	 744 	-112.14 	 -43.855 	 172.515 	
-917 	 3042 	 -184 	-159.985 	 -328.615 	 234.78 	
-264 	 2394 	 -1521 	-216.51 	 -582.505 	 293.755 	
895 	 1896 	 -2726 	-267.33 	 -740.46 	 357.665 	
1916 	 1668 	 -3584 	-309.54 	 -774.025 	 418.285 	
2174 	 1321 	 -3635 	-354.235 	 -718.83 	 470.715 	
1611 	 904 	 -2870 	-395.185 	 -640.85 	 516.11 	
607 	 681 	 -2146 	-426.335 	 -595.28 	 558.67 	
-69 	 430 	 -1774 	-456.4 	 -598.605 	 602.42 	
-112 	 -24 	 -1443 	-482.16 	 -630.385 	 642.285 	
-3 	 -425 	 -1525 	-494.585 	 -658.07 	 667.695 	
190 	 -837 	 -2044 	-501.375 	 -658.07 	 682.01 	
643 	 -1352 	 -1997 	-510.335 	 -614.32 	 686.07 	
1053 	 -1973 	 -1575 	-512.89 	 -526.505 	 670.915 	
1319 	 -2016 	 -1445 	-504.91 	 -404.845 	 631.26 	
1452 	 -2267 	 -1379 	-500.29 	 -257.635 	 579.25 	
1451 	 -2656 	 -1180 	-497.805 	 -104.895 	 509.915 	
1318 	 -2839 	 -775 	-489.755 	 31.78 	 427.525 	
1311 	 -2939 	 -216 	-477.89 	 124.11 	 337.68 	
1282 	 -2923 	 594 	-457.905 	 163.03 	 237.825 	
1126 	 -2540 	 1248 	-424.515 	 155.925 	 136.675 	
1220 	 -2246 	 1564 	-378.42 	 124.635 	 45.64 	
1934 	 -1915 	 1501 	-328.055 	 96.39 	 -32.305 	
2856 	 -1459 	 1602 	-279.72 	 94.465 	 -105.84 	
3437 	 -986 	 1982 	-228.97 	 118.195 	 -178.325 	
3353 	 -450 	 2231 	-172.235 	 156.765 	 -242.83 	
2944 	 174 	 2394 	-117.74 	 190.715 	 -290.535 	
2487 	 652 	 2868 	-68.985 	 199.71 	 -323.05 	
1891 	 1069 	 3297 	-20.23 	 171.92 	 -345.975 	
1236 	 1519 	 3171 	25.41 	 112.665 	 -359.1 	
857 	 1847 	 2805 	60.655 	 44.87 	 -360.815 	
874 	 2015 	 2454 	88.445 	 -6.405 	 -355.565 	
860 	 2143 	 1991 	114.205 	 -25.165 	 -349.58 	
558 	 2241 	 1534 	136.01 	 -12.075 	 -340.935 	
200 	 2227 	 1311 	152.74 	 17.465 	 -326.165 	
-120 	 2131 	 1319 	168.28 	 46.69 	 -307.72 	
-450 	 2041 	 1285 	184.345 	 61.775 	 -287.945 	
-801 	 1935 	 1194 	197.715 	 57.365 	 -265.72 	
-963 	 1776 	 1149 	207.34 	 36.085 	 -240.205 	
-944 	 1606 	 1059 	216.475 	 7.07 	 -213.92 	
-841 	 1445 	 784 	225.575 	 -19.635 	 -189 	
-703 	 1282 	 506 	231.63 	 -36.05 	 -166.25 	
-684 	 1124 	 344 	236.565 	 -38.955 	 -145.67 	
-726 	 955 	 124 	242.27 	 -29.12 	 -125.755 	
-648 	 851 	 -82 	246.155 	 -9.52 	 -105.63 	
-449 	 735 	 -92 	248.71 	 16.17 	 -87.605 	
-355 	 711 	 -71 	252.49 	 43.75 	 -73.57 	
-352 	 759 	 -173 	255.955 	 67.2 	 -59.815 	
-329 	 738 	 -200 	256.025 	 83.44 	 -43.26 	
-207 	 629 	 -142 	254.205 	 90.44 	 -27.72 	
-190 	 562 	 -154 	252.805 	 90.09 	 -15.4 	
-195 	 547 	 -262 	249.97 	 83.755 	 -2.835 	
-93 	 486 	 -289 	244.475 	 73.955 	 9.625 	
34 	 422 	 -291 	239.085 	 63.315 	 19.46 	
122 	 416 	 -375 	234.08 	 54.04 	 27.195 	
210 	 420 	 -449 	227.64 	 47.46 	 33.74 	
286 	 387 	 -454 	220.5 	 44.065 	 39.13 	
350 	 368 	 -483 	214.06 	 42.945 	 43.05 	
389 	 373 	 -556 	207.2 	 44.415 	 45.5 	
404 	 358 	 -629 	199.395 	 48.3 	 46.655 	
422 	 316 	 -691 	191.38 	 55.65 	 46.795 	
472 	 319 	 -739 	183.75 	 67.27 	 45.99 	
548 	 356 	 -756 	176.12 	 82.775 	 44.625 	
611 	 405 	 -742 	168.245 	 100.17 	 42.63 	
624 	 468 	 -693 	160.405 	 117.425 	 40.145 	
601 	 520 	 -651 	152.46 	 131.845 	 37.625 	
567 	 546 	 -629 	144.2 	 142.24 	 35.28 	
535 	 553 	 -598 	136.045 	 148.33 	 32.865 	
527 	 541 	 -536 	128.31 	 150.78 	 30.17 	
513 	 559 	 -513 	120.96 	 150.36 	 26.985 	
502 	 582 	 -505 	114.03 	 147.805 	 23.765 	
531 	 581 	 -505 	107.45 	 143.745 	 21.07 	
589 	 569 	 -504 	101.185 	 138.495 	 18.305 	
599 	 572 	 -472 	95.585 	 132.755 	 15.295 	
606 	 615 	 -491 	91.07 	 125.475 	 12.635 	
579 	 627 	 -447 	86.205 	 118.51 	 10.85 	
631 	 629 	 -436 	81.06 	 110.81 	 8.68 	
607 	 656 	 -424 	77.735 	 104.65 	 5.81 	
602 	 683 	 -459 	74.55 	 99.54 	 3.885 	
658 	 668 	 -478 	70.385 	 95.865 	 2.205 	
680 	 649 	 -457 	67.2 	 94.15 	 -0.21 	
668 	 650 	 -484 	65.45 	 94.045 	 -2.345 	
676 	 650 	 -525 	63 	 95.235 	 -3.815 	
681 	 636 	 -513 	60.445 	 97.37 	 -5.46 	
673 	 630 	 -481 	58.905 	 100.24 	 -7.385 	
655 	 657 	 -483 	57.75 	 103.25 	 -9.24 	
649 	 677 	 -472 	56.385 	 106.225 	 -10.5 	
644 	 659 	 -453 	55.02 	 108.605 	 -11.445 	
619 	 642 	 -442 	54.215 	 110.32 	 -12.81 	
594 	 643 	 -439 	53.9 	 110.67 	 -13.86 	
572 	 628 	 -442 	53.27 	 109.76 	 -14.315 	
551 	 610 	 -427 	52.85 	 107.835 	 -15.085 	
516 	 604 	 -427 	53.165 	 104.79 	 -15.75 	
495 	 597 	 -438 	53.62 	 100.94 	 -15.995 	
478 	 588 	 -432 	53.76 	 97.055 	 -16.38 	
455 	 583 	 -425 	54.25 	 93.1 	 -16.8 	
452 	 593 	 -385 	54.74 	 88.55 	 -17.15 	
363 	 537 	 -508 	56.07 	 85.12 	 -16.835 	
425 	 560 	 -535 	57.4 	 81.27 	 -17.78 	
326 	 563 	 -465 	57.26 	 80.955 	 -18.13 	
330 	 555 	 -475 	58.695 	 82.075 	 -17.325 	
364 	 569 	 -567 	60.865 	 85.05 	 -17.64 	
300 	 578 	 -591 	61.53 	 90.65 	 -18.585 	
257 	 562 	 -575 	62.335 	 97.615 	 -18.34 	
263 	 505 	 -623 	64.295 	 105.665 	 -17.885 	
214 	 419 	 -681 	65.485 	 115.01 	 -18.83 	
58 	 332 	 -682 	65.555 	 125.895 	 -20.125 	
-42 	 213 	 -721 	65.87 	 136.815 	 -20.23 	
-72 	 65 	 -907 	66.36 	 147.49 	 -20.335 	
-153 	 -150 	 -1175 	65.415 	 156.94 	 -21.42 	
-74 	 -294 	 -1222 	60.375 	 165.27 	 -20.79 	
250 	 -150 	 -1263 	47.6 	 169.365 	 -13.895 	
979 	 399 	 -1610 	30.45 	 165.06 	 -0.595 	
1546 	 1470 	 -2125 	4.585 	 148.75 	 9.765 	
1640 	 2174 	 -2112 	-35.735 	 113.295 	 23.765 	
1395 	 2201 	 -1292 	-78.05 	 49.385 	 44.24 	
1119 	 2297 	 -1254 	-117.32 	 -51.1 	 64.26 	
752 	 2199 	 -1944 	-168.7 	 -166.46 	 82.915 	
1031 	 1845 	 -2629 	-232.96 	 -264.215 	 108.045 	
2147 	 1664 	 -3314 	-297.92 	 -306.845 	 136.815 	
3206 	 1740 	 -3804 	-367.71 	 -279.545 	 154.315 	
3355 	 1657 	 -3323 	-443.555 	 -207.55 	 160.615 	
2748 	 1507 	 -2302 	-510.125 	 -141.365 	 164.675 	
2053 	 1499 	 -1823 	-568.96 	 -117.25 	 168.525 	
1679 	 1240 	 -1631 	-630.735 	 -132.79 	 171.71 	
1880 	 832 	 -1401 	-689.815 	 -164.99 	 172.34 	
2063 	 312 	 -1480 	-735.42 	 -181.44 	 163.59 	
2065 	 -410 	 -1649 	-766.395 	 -169.855 	 145.04 	
2329 	 -1602 	 -1253 	-786.065 	 -128.17 	 123.095 	
2571 	 -2632 	 -869 	-782.705 	 -62.58 	 86.94 	
2229 	 -3081 	 -825 	-756.875 	 19.565 	 32.935 	
1912 	 -3517 	 -719 	-727.265 	 92.505 	 -19.915 	
1789 	 -3942 	 273 	-689.185 	 141.4 	 -76.755 	
1550 	 -4008 	 1219 	-627.515 	 152.53 	 -142.625 	
1155 	 -3428 	 1551 	-550.48 	 124.53 	 -208.285 	
1092 	 -2967 	 1986 	-472.255 	 74.34 	 -258.755 	
1357 	 -2583 	 2334 	-388.15 	 24.675 	 -297.815 	
1547 	 -2048 	 2480 	-299.705 	 -7.245 	 -330.33 	
1691 	 -1411 	 2410 	-219.345 	 -18.935 	 -357.91 	
1411 	 -838 	 2987 	-144.83 	 -12.95 	 -381.605 	
939 	 -223 	 3424 	-68.53 	 -7.14 	 -398.72 	
346 	 353 	 3356 	2.59 	 -11.725 	 -407.05 	
-195 	 824 	 3269 	59.115 	 -28.98 	 -404.705 	
-553 	 1231 	 3251 	105 	 -55.755 	 -393.96 	
-760 	 1585 	 3010 	145.845 	 -79.835 	 -377.72 	
-874 	 1920 	 2414 	179.55 	 -89.775 	 -356.93 	
-933 	 2055 	 1940 	202.195 	 -78.575 	 -331.73 	
-1034 	 2031 	 1774 	219.1 	 -50.82 	 -303.415 	
-1294 	 2028 	 1613 	236.81 	 -18.515 	 -272.3 	
-1580 	 1986 	 1361 	251.615 	 3.78 	 -236.075 	
-1743 	 1790 	 1213 	259.875 	 7.28 	 -196.595 	
-1826 	 1563 	 1152 	265.3 	 -6.615 	 -157.99 	
-1888 	 1448 	 979 	270.725 	 -30.17 	 -119.735 	
-1745 	 1265 	 712 	274.4 	 -53.795 	 -80.675 	
-1464 	 1096 	 493 	275.975 	 -70.105 	 -44.24 	
-1219 	 940 	 373 	277.095 	 -76.755 	 -13.16 	
-1105 	 818 	 234 	278.845 	 -76.65 	 14.385 	
-1047 	 693 	 89 	279.615 	 -74.725 	 40.74 	
-949 	 530 	 -7 	278.04 	 -74.27 	 64.925 	
-827 	 411 	 -61 	275.52 	 -75.285 	 84.56 	
-706 	 376 	 -116 	272.44 	 -75.04 	 100.135 	
-510 	 372 	 -166 	268.66 	 -70.945 	 113.33 	
-268 	 355 	 -236 	264.04 	 -61.915 	 123.62 	
-112 	 346 	 -319 	257.775 	 -50.085 	 129.71 	
-93 	 354 	 -351 	249.165 	 -39.445 	 133.28 	
-93 	 352 	 -308 	239.225 	 -33.04 	 136.185 	
-15 	 358 	 -280 	229.075 	 -31.64 	 137.62 	
86 	 376 	 -310 	218.435 	 -33.565 	 135.905 	
161 	 396 	 -358 	206.71 	 -35.875 	 131.74 	
243 	 404 	 -377 	194.425 	 -36.54 	 126.665 	
346 	 405 	 -397 	182.35 	 -34.475 	 120.575 	
432 	 425 	 -443 	170.52 	 -29.015 	 112.805 	
485 	 455 	 -484 	158.41 	 -20.475 	 103.95 	
529 	 481 	 -494 	146.65 	 -9.695 	 94.99 	
577 	 506 	 -492 	135.695 	 2.835 	 86.31 	
623 	 536 	 -501 	125.3 	 15.715 	 77.28 	
651 	 578 	 -496 	115.5 	 28.245 	 68.18 	
670 	 618 	 -469 	106.47 	 39.62 	 59.57 	
686 	 651 	 -449 	98.42 	 49.63 	 51.555 	
698 	 686 	 -438 	91.21 	 58.24 	 44.17 	
712 	 719 	 -435 	84.63 	 65.38 	 37.24 	
727 	 733 	 -416 	78.82 	 71.54 	 30.975 	
753 	 755 	 -390 	74.06 	 76.86 	 25.165 	
766 	 780 	 -374 	69.93 	 81.55 	 19.985 	
763 	 801 	 -370 	66.29 	 85.645 	 15.4 	
763 	 800 	 -380 	63.385 	 89.18 	 11.445 	
757 	 800 	 -364 	61.075 	 92.19 	 7.63 	
711 	 800 	 -337 	59.29 	 95.025 	 4.025 	
683 	 813 	 -338 	58.415 	 97.23 	 0.875 	
658 	 809 	 -348 	57.89 	 99.68 	 -2.31 	
620 	 809 	 -356 	57.4 	 101.99 	 -5.495 	
593 	 789 	 -333 	57.26 	 104.685 	 -8.61 	
568 	 771 	 -331 	58.24 	 108.29 	 -11.69 	
538 	 764 	 -358 	59.045 	 112.525 	 -14.735 	
487 	 724 	 -352 	59.535 	 117.495 	 -17.92 	
464 	 739 	 -361 	61.005 	 122.535 	 -21.105 	
426 	 752 	 -349 	63 	 128.31 	 -24.605 	
382 	 738 	 -366 	64.645 	 133.665 	 -27.335 	
384 	 701 	 -360 	66.01 	 139.23 	 -29.435 	
437 	 683 	 -330 	68.005 	 146.16 	 -30.905 	
435 	 628 	 -356 	70.385 	 151.935 	 -33.425 	
266 	 665 	 -363 	72.695 	 158.795 	 -37.555 	
210 	 656 	 -367 	74.725 	 163.03 	 -37.695 	
270 	 606 	 -347 	77.07 	 165.76 	 -36.96 	
261 	 572 	 -355 	80.01 	 167.3 	 -39.27 	
128 	 572 	 -383 	82.88 	 168.175 	 -41.44 	
87 	 548 	 -385 	85.26 	 167.825 	 -40.67 	
145 	 500 	 -349 	87.78 	 167.265 	 -40.285 	
125 	 494 	 -346 	90.79 	 166.88 	 -41.65 	
22 	 509 	 -355 	93.555 	 166.495 	 -42 	
-17 	 488 	 -354 	95.445 	 165.515 	 -40.565 	
-14 	 424 	 -355 	97.615 	 163.625 	 -39.83 	
-83 	 376 	 -388 	100.03 	 161.21 	 -40.25 	
-208 	 338 	 -412 	101.745 	 157.465 	 -39.83 	
-263 	 293 	 -429 	102.585 	 152.425 	 -38.465 	
-231 	 263 	 -465 	104.055 	 146.23 	 -36.4 	
-214 	 227 	 -487 	103.95 	 140.455 	 -34.16 	
-130 	 118 	 -464 	99.575 	 134.645 	 -30.275 	
55 	 -47 	 -400 	91.035 	 128.87 	 -22.05 	
345 	 -49 	 -651 	81.06 	 120.645 	 -11.795 	
513 	 554 	 -1344 	69.44 	 110.25 	 -3.29 	
646 	 1299 	 -1782 	48.72 	 95.165 	 9.205 	
742 	 1639 	 -1552 	15.295 	 69.86 	 30.135 	
980 	 1559 	 -1458 	-19.6 	 26.495 	 57.68 	
1065 	 1636 	 -1684 	-54.285 	 -36.05 	 81.9 	
683 	 1718 	 -1933 	-102.34 	 -116.655 	 102.865 	
547 	 1669 	 -1997 	-160.23 	 -201.845 	 134.085 	
1130 	 1674 	 -2179 	-216.65 	 -267.575 	 173.355 	
1991 	 1883 	 -2668 	-275.135 	 -294.595 	 208.25 	
2532 	 1966 	 -2640 	-339.92 	 -283.815 	 237.265 	
2643 	 1899 	 -2234 	-401.485 	 -260.015 	 263.795 	
2385 	 1749 	 -2073 	-454.685 	 -243.915 	 288.925 	
2109 	 1406 	 -2260 	-506.66 	 -243.46 	 314.755 	
2256 	 754 	 -2325 	-559.335 	 -249.69 	 339.85 	
2646 	 229 	 -2070 	-603.015 	 -243.005 	 355.635 	
2881 	 -139 	 -1998 	-632.03 	 -211.54 	 356.615 	
2943 	 -670 	 -1987 	-651.07 	 -155.19 	 345.94 	
3111 	 -1722 	 -1635 	-663.915 	 -84.525 	 322.7 	
2822 	 -2356 	 -1104 	-661.85 	 -8.925 	 279.3 	
2197 	 -2521 	 -757 	-647.71 	 50.68 	 224.175 	
1878 	 -2739 	 -169 	-627.025 	 79.555 	 165.69 	
1646 	 -2904 	 570 	-595.7 	 80.08 	 97.195 	
1420 	 -2865 	 1093 	-551.04 	 58.205 	 20.335 	
1255 	 -2614 	 1392 	-496.02 	 29.855 	 -55.09 	
1500 	 -2391 	 1543 	-435.61 	 10.955 	 -123.34 	
1927 	 -2262 	 1745 	-373.45 	 10.71 	 -192.15 	
1956 	 -1777 	 1925 	-310.415 	 29.155 	 -263.97 	
1640 	 -1113 	 2326 	-248.185 	 58.345 	 -326.76 	
1371 	 -620 	 2927 	-183.19 	 88.83 	 -376.04 	
1218 	 -113 	 3069 	-114.835 	 109.095 	 -416.85 	
903 	 401 	 2967 	-55.405 	 113.295 	 -451.605 	
448 	 855 	 3208 	-7.105 	 99.855 	 -475.685 	
141 	 1309 	 3395 	39.83 	 70.21 	 -484.96 	
88 	 1707 	 3045 	84.945 	 33.11 	 -482.72 	
87 	 1926 	 2505 	118.125 	 -0.105 	 -474.915 	
12 	 1997 	 2283 	141.05 	 -21.035 	 -462.385 	
-294 	 2115 	 2158 	163.835 	 -26.81 	 -443.59 	
-471 	 2164 	 1805 	187.005 	 -22.4 	 -416.955 	
-496 	 2012 	 1506 	204.47 	 -13.79 	 -387.065 	
-708 	 1782 	 1450 	218.855 	 -5.775 	 -359.31 	
-1133 	 1686 	 1291 	234.255 	 -1.89 	 -331.065 	
-1386 	 1558 	 1067 	247.87 	 -2.205 	 -297.675 	
-1348 	 1271 	 914 	258.58 	 -3.22 	 -262.92 	
-1293 	 986 	 722 	269.675 	 -0.07 	 -233.695 	
-1342 	 891 	 498 	279.685 	 10.395 	 -208.18 	
-1293 	 792 	 387 	287.28 	 27.405 	 -181.265 	
-1143 	 646 	 369 	295.05 	 48.65 	 -154.805 	
-1072 	 561 	 284 	303.03 	 71.155 	 -130.795 	
-1051 	 469 	 190 	307.16 	 89.355 	 -106.54 	
-1004 	 378 	 187 	308.07 	 98.98 	 -81.55 	
-955 	 348 	 241 	309.435 	 99.47 	 -58.73 	
-926 	 407 	 221 	310.275 	 91.595 	 -37.52 	
-838 	 450 	 149 	308.105 	 77.7 	 -15.715 	
-681 	 458 	 104 	304.5 	 61.46 	 4.515 	
-562 	 471 	 13 	300.86 	 45.36 	 21.7 	
-488 	 488 	 -101 	295.785 	 31.185 	 37.45 	
-386 	 502 	 -184 	289.135 	 19.705 	 52.465 	
-253 	 504 	 -229 	282.52 	 11.445 	 65.31 	
-152 	 502 	 -309 	275.73 	 6.79 	 75.74 	
-103 	 504 	 -389 	268.345 	 5.53 	 84.525 	
-44 	 496 	 -424 	260.505 	 7.175 	 92.505 	
49 	 491 	 -455 	252.875 	 11.62 	 99.05 	
120 	 490 	 -516 	245.35 	 19.005 	 103.775 	
168 	 481 	 -574 	237.72 	 28.735 	 107.555 	
236 	 461 	 -601 	229.985 	 39.69 	 110.88 	
311 	 435 	 -610 	222.74 	 51.205 	 113.015 	
351 	 424 	 -639 	215.95 	 62.3 	 114.135 	
377 	 428 	 -646 	209.265 	 72.275 	 114.835 	
418 	 432 	 -621 	202.58 	 80.955 	 115.185 	
473 	 457 	 -590 	196.665 	 87.815 	 114.905 	
540 	 508 	 -577 	190.855 	 93.17 	 114.1 	
582 	 547 	 -578 	185.15 	 97.125 	 112.945 	
634 	 565 	 -599 	180.075 	 100.03 	 111.79 	
664 	 561 	 -610 	174.58 	 102.13 	 110.95 	
696 	 532 	 -588 	169.4 	 104.23 	 108.71 	
686 	 533 	 -625 	165.27 	 105.665 	 105.56 	
647 	 536 	 -646 	161.035 	 107.1 	 102.76 	
650 	 531 	 -630 	156.345 	 108.115 	 99.505 	
612 	 526 	 -615 	152.495 	 108.535 	 94.675 	
578 	 551 	 -636 	149.24 	 108.675 	 89.32 	
557 	 578 	 -611 	144.865 	 109.06 	 84.56 	
575 	 569 	 -545 	140.56 	 109.795 	 79.135 	
600 	 591 	 -554 	137.235 	 111.23 	 72.66 	
606 	 649 	 -489 	132.965 	 113.12 	 66.71 	
594 	 584 	 -566 	129.045 	 117.285 	 63.21 	
712 	 633 	 -574 	125.195 	 120.33 	 56.035 	
517 	 641 	 -526 	120.505 	 126.665 	 47.53 	
412 	 643 	 -533 	117.6 	 132.02 	 42.7 	
481 	 614 	 -583 	115.185 	 136.605 	 38.43 	
491 	 568 	 -603 	111.965 	 142.03 	 30.765 	
411 	 545 	 -551 	109.025 	 147.7 	 22.89 	
373 	 534 	 -538 	107.205 	 153.02 	 17.815 	
436 	 507 	 -562 	105.525 	 157.885 	 12.81 	
422 	 456 	 -575 	103.67 	 162.89 	 5.985 	
327 	 452 	 -531 	102.48 	 167.685 	 -0.035 	
326 	 427 	 -567 	101.71 	 171.29 	 -4.445 	
327 	 400 	 -622 	101.57 	 174.86 	 -9.625 	
259 	 379 	 -637 	101.71 	 178.815 	 -15.54 	
201 	 347 	 -634 	102.305 	 183.085 	 -20.335 	
198 	 303 	 -615 	103.18 	 188.055 	 -24.395 	
175 	 242 	 -594 	104.23 	 193.9 	 -29.015 	
84 	 155 	 -577 	104.79 	 199.92 	 -34.09 	
-44 	 58 	 -576 	105.245 	 204.75 	 -38.885 	
-217 	 -53 	 -570 	105.455 	 206.78 	 -44.485 	
-462 	 -149 	 -549 	104.895 	 203.875 	 -52.08 	
-860 	 -247 	 -315 	101.92 	 191.765 	 -61.565 	
-1067 	 -498 	 -109 	94.255 	 159.74 	 -69.335 	
-991 	 -950 	 -712 	90.72 	 98.735 	 -65.17 	
33 	 -1129 	 -1503 	85.225 	 14.315 	 -46.095 	
1379 	 -1087 	 -1979 	53.865 	 -68.985 	 -21.315 	
2681 	 -369 	 -2568 	16.485 	 -131.005 	 -8.05 	
2202 	 720 	 -2965 	-9.135 	 -145.32 	 2.03 	
1362 	 1025 	 -3100 	-49.35 	 -144.27 	 38.15 	
1105 	 569 	 -2873 	-105.21 	 -147.105 	 85.47 	
934 	 426 	 -2987 	-160.16 	 -155.855 	 118.16 	
963 	 695 	 -3453 	-225.365 	 -162.33 	 152.425 	
1607 	 520 	 -3518 	-298.095 	 -153.79 	 199.185 	
2176 	 298 	 -3578 	-364.945 	 -133.525 	 243.915 	
1951 	 201 	 -3535 	-435.155 	 -128.38 	 279.93 	
1120 	 -29 	 -2817 	-509.215 	 -162.855 	 316.785 	
654 	 -279 	 -2211 	-572.425 	 -236.6 	 363.335 	
964 	 -384 	 -2048 	-622.65 	 -319.375 	 412.51 	
1513 	 -453 	 -1992 	-666.4 	 -377.72 	 450.205 	
1599 	 -556 	 -1846 	-699.86 	 -395.465 	 474.18 	
1483 	 -870 	 -1873 	-721.385 	 -379.225 	 495.215 	
1596 	 -1307 	 -1706 	-736.68 	 -341.285 	 513.275 	
2081 	 -1982 	 -1207 	-743.82 	 -297.115 	 515.2 	
2250 	 -2397 	 -640 	-737.59 	 -247.065 	 491.54 	
1928 	 -2250 	 -422 	-721.63 	 -184.24 	 451.57 	
1763 	 -2481 	 -228 	-697.69 	 -105.035 	 407.33 	
2129 	 -2941 	 -19 	-664.335 	 -15.4 	 351.435 	
2186 	 -2986 	 377 	-627.445 	 67.935 	 271.215 	
1824 	 -2734 	 1144 	-582.61 	 118.09 	 180.39 	
1362 	 -2340 	 1980 	-526.085 	 127.96 	 95.445 	
1534 	 -2016 	 2401 	-460.635 	 105.49 	 19.46 	
1996 	 -1626 	 2527 	-391.475 	 79.625 	 -55.265 	
2436 	 -1080 	 2392 	-324.17 	 72.905 	 -128.415 	
2643 	 -556 	 2500 	-260.68 	 96.95 	 -194.39 	
2595 	 -118 	 2894 	-195.335 	 141.575 	 -251.125 	
2244 	 394 	 3074 	-127.505 	 180.32 	 -299.075 	
1708 	 873 	 3191 	-67.83 	 187.95 	 -336.42 	
1188 	 1277 	 3507 	-16.94 	 157.395 	 -361.235 	
943 	 1677 	 3508 	31.675 	 99.015 	 -374.08 	
942 	 1996 	 3007 	74.69 	 35.84 	 -377.825 	
966 	 2194 	 2411 	106.33 	 -13.44 	 -375.69 	
886 	 2260 	 2066 	129.29 	 -41.86 	 -368.06 	
706 	 2320 	 1798 	150.15 	 -52.745 	 -355.32 	
492 	 2333 	 1436 	168.385 	 -53.27 	 -339.395 	
246 	 2217 	 1236 	181.825 	 -48.93 	 -320.355 	
-10 	 2043 	 1155 	193.585 	 -46.235 	 -299.04 	
-251 	 1899 	 985 	205.73 	 -48.09 	 -276.57 	
-438 	 1686 	 781 	215.005 	 -53.41 	 -252.7 	
-530 	 1440 	 605 	221.655 	 -58.765 	 -229.355 	
-627 	 1207 	 406 	227.36 	 -59.675 	 -206.92 	
-709 	 1014 	 216 	231.49 	 -53.375 	 -185.185 	
-658 	 879 	 153 	234.43 	 -40.67 	 -164.325 	
-546 	 753 	 133 	237.475 	 -23.94 	 -145.845 	
-540 	 680 	 35 	240.59 	 -5.355 	 -129.045 	
-523 	 607 	 -74 	240.625 	 10.605 	 -111.37 	
-453 	 500 	 -62 	237.895 	 20.615 	 -93.45 	
-423 	 437 	 -8 	235.41 	 22.925 	 -77.665 	
-452 	 445 	 -45 	232.925 	 17.395 	 -63.455 	
-439 	 451 	 -104 	228.375 	 6.72 	 -48.965 	
-307 	 413 	 -126 	222.565 	 -4.34 	 -35.595 	
-152 	 415 	 -206 	217.21 	 -11.48 	 -24.815 	
-78 	 422 	 -330 	210.91 	 -12.95 	 -16.205 	
-41 	 419 	 -397 	203.245 	 -8.89 	 -8.295 	
23 	 406 	 -407 	195.405 	 -1.225 	 -0.98 	
79 	 411 	 -417 	188.16 	 9.065 	 4.445 	
109 	 451 	 -445 	180.635 	 20.51 	 8.4 	
126 	 468 	 -456 	172.445 	 32.725 	 11.725 	
157 	 469 	 -460 	164.535 	 45.29 	 14.56 	
206 	 478 	 -470 	157.01 	 57.96 	 16.625 	
246 	 504 	 -470 	149.415 	 70.805 	 17.745 	
275 	 526 	 -454 	142.205 	 83.58 	 18.2 	
296 	 548 	 -449 	135.485 	 95.83 	 18.445 	
323 	 573 	 -453 	129.045 	 107.275 	 18.445 	
334 	 598 	 -433 	122.815 	 118.16 	 18.095 	
339 	 611 	 -411 	117.285 	 127.82 	 17.5 	
350 	 632 	 -392 	112.175 	 136.22 	 16.73 	
365 	 664 	 -376 	107.555 	 142.975 	 15.855 	
356 	 671 	 -356 	103.425 	 149.135 	 14.98 	
363 	 673 	 -375 	99.435 	 154.35 	 14.035 	
366 	 661 	 -382 	96.145 	 159.46 	 13.51 	
381 	 650 	 -391 	93.415 	 164.71 	 13.02 	
393 	 639 	 -410 	91.35 	 170.31 	 12.285 	
402 	 627 	 -429 	89.6 	 176.715 	 11.76 	
425 	 611 	 -441 	88.095 	 183.715 	 11.69 	
467 	 589 	 -452 	87.01 	 191.03 	 12.145 	
501 	 577 	 -453 	86.45 	 198.275 	 12.6 	
507 	 577 	 -438 	85.925 	 205.17 	 13.265 	
498 	 578 	 -416 	85.61 	 210.56 	 14.595 	
493 	 570 	 -405 	85.54 	 214.305 	 16.205 	
477 	 564 	 -403 	85.54 	 216.09 	 17.85 	
452 	 551 	 -395 	85.75 	 216.265 	 19.74 	
432 	 535 	 -377 	85.96 	 215.04 	 21.84 	
421 	 526 	 -355 	86.17 	 212.87 	 23.94 	
401 	 531 	 -335 	86.31 	 210 	 25.865 	
385 	 523 	 -338 	86.765 	 206.675 	 28 	
376 	 507 	 -352 	87.01 	 203.21 	 30.17 	
368 	 487 	 -360 	87.185 	 199.64 	 32.27 	
356 	 470 	 -359 	87.325 	 196.28 	 34.23 	
350 	 453 	 -359 	87.64 	 193.095 	 36.4 	
342 	 443 	 -367 	87.99 	 190.155 	 38.675 	
332 	 435 	 -386 	88.13 	 187.355 	 40.95 	
313 	 420 	 -403 	87.955 	 184.625 	 43.295 	
289 	 401 	 -393 	87.64 	 181.335 	 46.025 	
271 	 361 	 -418 	87.01 	 176.75 	 49 	
225 	 308 	 -493 	86.555 	 169.89 	 51.73 	
129 	 240 	 -542 	84.56 	 160.65 	 54.18 	
138 	 144 	 -521 	80.255 	 146.895 	 58.275 	
337 	 30 	 -508 	73.71 	 127.54 	 65.73 	
657 	 -27 	 -776 	63.175 	 97.755 	 75.075 	
1112 	 132 	 -1559 	49.42 	 56.07 	 86.835 	
1562 	 656 	 -2198 	30.03 	 6.86 	 98.56 	
1763 	 1036 	 -2222 	-0.56 	 -46.235 	 112.875 	
1873 	 1170 	 -1879 	-36.61 	 -104.51 	 135.03 	
2026 	 1361 	 -1904 	-75.25 	 -168.665 	 157.5 	
1835 	 1423 	 -2145 	-124.075 	 -233.695 	 172.095 	
1463 	 1335 	 -2332 	-182.49 	 -289.24 	 185.64 	
1442 	 1252 	 -2726 	-242.305 	 -320.635 	 205.73 	
1847 	 1089 	 -3236 	-307.475 	 -317.45 	 227.955 	
2225 	 761 	 -3220 	-378.98 	 -286.16 	 240.52 	
1978 	 539 	 -2781 	-446.635 	 -249.095 	 241.885 	
1415 	 378 	 -2440 	-509.74 	 -228.305 	 242.445 	
1098 	 120 	 -2083 	-570.36 	 -225.015 	 245.35 	
1158 	 -310 	 -2009 	-623.35 	 -227.29 	 243.565 	
1293 	 -688 	 -2151 	-669.585 	 -214.375 	 232.155 	
1410 	 -1184 	 -2206 	-711.27 	 -171.15 	 213.43 	
1790 	 -1981 	 -1993 	-740.39 	 -93.31 	 186.585 	
2036 	 -2602 	 -1714 	-752.185 	 15.435 	 144.83 	
2029 	 -2738 	 -1494 	-751.8 	 133.14 	 89.32 	
1791 	 -2958 	 -813 	-744.38 	 234.22 	 27.79 	
1372 	 -3137 	 161 	-722.505 	 292.215 	 -38.29 	
995 	 -3053 	 843 	-684.81 	 294.455 	 -102.06 	
1163 	 -2739 	 1301 	-640.78 	 251.895 	 -155.785 	
1679 	 -2325 	 1692 	-591.36 	 194.565 	 -202.125 	
1989 	 -1648 	 1960 	-532.805 	 150.115 	 -242.27 	
2145 	 -1013 	 2061 	-467.53 	 126.315 	 -270.13 	
2222 	 -530 	 2223 	-402.29 	 116.97 	 -288.96 	
1974 	 -61 	 2539 	-338.975 	 108.115 	 -305.725 	
1406 	 450 	 2837 	-277.305 	 88.62 	 -315.665 	
1021 	 965 	 2969 	-218.47 	 55.86 	 -311.5 	
976 	 1310 	 3037 	-163.555 	 16.03 	 -299.11 	
869 	 1567 	 2924 	-112.385 	 -23.065 	 -288.225 	
467 	 1822 	 2685 	-67.235 	 -54.18 	 -277.06 	
87 	 1910 	 2542 	-28.385 	 -72.835 	 -259.455 	
-109 	 1861 	 2449 	7.84 	 -78.295 	 -238.91 	
-322 	 1838 	 2224 	41.44 	 -74.935 	 -221.2 	
-654 	 1786 	 2077 	69.23 	 -67.235 	 -204.575 	
-869 	 1681 	 2052 	92.925 	 -59.675 	 -186.34 	
-899 	 1577 	 1917 	116.375 	 -52.43 	 -167.895 	
-896 	 1456 	 1668 	137.62 	 -43.645 	 -150.92 	
-912 	 1302 	 1471 	154.875 	 -33.915 	 -134.96 	
-920 	 1157 	 1358 	170.24 	 -24.64 	 -119.105 	
-882 	 1033 	 1221 	185.71 	 -16.59 	 -103.355 	
-797 	 901 	 1030 	200.515 	 -9.59 	 -88.095 	
-684 	 753 	 833 	213.71 	 -3.115 	 -73.745 	
-587 	 606 	 690 	225.26 	 3.885 	 -60.375 	
-453 	 529 	 515 	235.725 	 11.41 	 -47.81 	
-352 	 418 	 402 	244.65 	 19.355 	 -35.56 	
-276 	 328 	 322 	252.7 	 26.425 	 -23.905 	
-201 	 305 	 222 	259.42 	 31.29 	 -13.16 	
-142 	 295 	 171 	264.11 	 33.495 	 -3.08 	
-77 	 278 	 144 	267.4 	 32.865 	 6.685 	
-6 	 284 	 87 	269.22 	 30.24 	 15.82 	
56 	 312 	 -1 	268.905 	 26.53 	 23.59 	
97 	 329 	 -42 	266.455 	 23.135 	 30.485 	
153 	 350 	 -69 	262.675 	 20.755 	 36.785 	
229 	 394 	 -120 	258.405 	 20.65 	 42.035 	
300 	 443 	 -187 	252.84 	 23.345 	 46.025 	
367 	 476 	 -225 	245.63 	 28.63 	 49.245 	
449 	 481 	 -253 	237.86 	 35.42 	 52.045 	
512 	 499 	 -294 	229.985 	 42.77 	 54.25 	
561 	 523 	 -311 	221.76 	 49.56 	 55.895 	
590 	 543 	 -297 	213.22 	 54.775 	 57.05 	
610 	 561 	 -285 	205.03 	 57.855 	 57.75 	
635 	 582 	 -282 	197.26 	 59.185 	 57.995 	
673 	 598 	 -280 	189.42 	 59.465 	 57.61 	
689 	 600 	 -279 	182.035 	 59.29 	 56.525 	
699 	 586 	 -295 	174.965 	 58.905 	 55.125 	
705 	 566 	 -304 	168.105 	 58.345 	 53.445 	
699 	 557 	 -307 	161.455 	 57.365 	 51.205 	
696 	 579 	 -311 	155.82 	 55.93 	 48.825 	
715 	 619 	 -329 	150.745 	 54.39 	 46.515 	
758 	 632 	 -358 	145.53 	 52.36 	 44.135 	
747 	 650 	 -332 	140.805 	 51.52 	 41.16 	
752 	 684 	 -350 	136.535 	 50.855 	 38.15 	
740 	 709 	 -356 	132.23 	 51.415 	 35.805 	
739 	 717 	 -367 	128.205 	 52.57 	 33.6 	
752 	 724 	 -376 	124.355 	 54.39 	 30.905 	
750 	 745 	 -361 	120.785 	 57.015 	 28.035 	
760 	 779 	 -334 	117.565 	 60.27 	 25.55 	
777 	 811 	 -314 	114.555 	 64.26 	 23.135 	
767 	 814 	 -327 	111.825 	 68.845 	 20.755 	
755 	 788 	 -367 	109.375 	 74.13 	 18.76 	
764 	 745 	 -384 	107.415 	 79.975 	 17.115 	
781 	 701 	 -399 	105.77 	 86.17 	 15.015 	
753 	 668 	 -399 	104.895 	 92.785 	 12.775 	
742 	 641 	 -416 	104.405 	 99.12 	 11.305 	
743 	 612 	 -414 	104.02 	 105.175 	 10.045 	
728 	 585 	 -403 	104.055 	 110.425 	 8.365 	
701 	 570 	 -402 	104.44 	 114.765 	 6.895 	
684 	 560 	 -394 	104.895 	 118.23 	 5.88 	
677 	 556 	 -369 	105.35 	 120.75 	 5.005 	
670 	 556 	 -350 	106.12 	 122.36 	 3.955 	
659 	 570 	 -337 	106.75 	 123.165 	 3.22 	
653 	 579 	 -316 	107.275 	 123.27 	 2.835 	
640 	 573 	 -309 	108.08 	 122.71 	 2.52 	
633 	 564 	 -324 	108.745 	 121.73 	 2.31 	
619 	 558 	 -323 	109.305 	 120.4 	 2.17 	
611 	 546 	 -317 	110.215 	 118.545 	 2.065 	
594 	 541 	 -325 	111.23 	 116.97 	 2.03 	
577 	 544 	 -332 	112.175 	 115.535 	 1.995 	
560 	 544 	 -333 	112.98 	 114.52 	 1.96 	
541 	 535 	 -348 	114.065 	 114.24 	 1.925 	
525 	 518 	 -380 	115.29 	 114.485 	 1.715 	
516 	 500 	 -385 	116.095 	 115.675 	 1.645 	
518 	 483 	 -379 	116.795 	 117.425 	 1.61 	
503 	 482 	 -384 	118.055 	 119.525 	 1.33 	
471 	 486 	 -400 	119.07 	 121.52 	 1.085 	
437 	 480 	 -405 	119.49 	 122.955 	 1.155 	
408 	 453 	 -404 	120.085 	 123.515 	 1.155 	
382 	 415 	 -430 	120.925 	 122.605 	 0.77 	
293 	 366 	 -405 	120.26 	 120.4 	 -0.21 	
194 	 277 	 -312 	118.475 	 115.64 	 -1.19 	
152 	 169 	 -334 	117.145 	 106.575 	 -1.61 	
147 	 113 	 -519 	115.675 	 91.7 	 -2.1 	
213 	 38 	 -674 	111.58 	 68.915 	 -3.535 	
324 	 -155 	 -847 	103.985 	 35.42 	 -4.62 	
487 	 -214 	 -1186 	96.11 	 -9.31 	 -1.75 	
848 	 71 	 -1504 	82.25 	 -61.285 	 4.515 	
1250 	 534 	 -1532 	55.125 	 -112.105 	 12.425 	
1573 	 1012 	 -1415 	21.91 	 -153.93 	 23.345 	
1685 	 1677 	 -1620 	-12.74 	 -181.65 	 36.365 	
1680 	 1947 	 -1846 	-57.96 	 -194.495 	 51.975 	
1551 	 1746 	 -1843 	-110.145 	 -198.485 	 68.075 	
1285 	 1532 	 -2196 	-161.14 	 -198.73 	 83.825 	
1152 	 1416 	 -2705 	-218.68 	 -198.94 	 104.265 	
1337 	 1182 	 -2709 	-286.195 	 -203.21 	 129.185 	
1557 	 961 	 -2428 	-352.835 	 -216.37 	 152.845 	
1431 	 873 	 -2131 	-412.475 	 -241.885 	 173.775 	
949 	 807 	 -1915 	-469.385 	 -282.555 	 195.685 	
529 	 577 	 -1697 	-524.3 	 -331.415 	 223.3 	
572 	 364 	 -1521 	-571.69 	 -373.38 	 253.715 	
798 	 329 	 -1520 	-610.015 	 -391.37 	 276.22 	
757 	 250 	 -1687 	-642.04 	 -376.705 	 289.275 	
662 	 -83 	 -1765 	-668.22 	 -330.47 	 301.28 	
888 	 -653 	 -1720 	-686.21 	 -260.75 	 310.065 	
1252 	 -1229 	 -1545 	-694.4 	 -178.185 	 305.655 	
1452 	 -1751 	 -1195 	-691.46 	 -91.875 	 285.285 	
1343 	 -2161 	 -1038 	-673.995 	 -5.74 	 254.695 	
1267 	 -2490 	 -1009 	-647.255 	 73.255 	 220.535 	
1356 	 -2762 	 -667 	-620.06 	 141.82 	 181.125 	
1369 	 -2670 	 20 	-583.59 	 191.485 	 131.25 	
1152 	 -2348 	 564 	-533.26 	 216.895 	 76.93 	
1042 	 -1999 	 986 	-475.825 	 217.455 	 28.175 	
1141 	 -1842 	 1377 	-413.945 	 199.43 	 -17.395 	
1271 	 -1448 	 1641 	-351.33 	 170.695 	 -61.075 	
1396 	 -968 	 2030 	-289.345 	 141.575 	 -98.91 	
1542 	 -438 	 2323 	-227.64 	 117.005 	 -129.78 	
1641 	 45 	 2492 	-167.65 	 100.45 	 -155.82 	
1589 	 468 	 2601 	-112.175 	 89.985 	 -179.165 	
1402 	 853 	 2688 	-63.385 	 80.57 	 -198.38 	
1140 	 1172 	 2786 	-20.3 	 69.405 	 -211.96 	
970 	 1459 	 2765 	18.97 	 56.245 	 -219.73 	
915 	 1685 	 2600 	53.725 	 43.295 	 -223.825 	
859 	 1808 	 2390 	82.88 	 33.285 	 -226.03 	
716 	 1861 	 2218 	107.8 	 26.565 	 -225.89 	
571 	 1890 	 2044 	130.06 	 22.47 	 -222.88 	
486 	 1862 	 1858 	150.325 	 20.125 	 -217.525 	
434 	 1779 	 1684 	168.56 	 19.005 	 -211.61 	
356 	 1684 	 1518 	185.535 	 19.145 	 -205.485 	
262 	 1575 	 1344 	201.74 	 20.3 	 -198.59 	
193 	 1444 	 1181 	216.72 	 22.05 	 -190.82 	
141 	 1288 	 1048 	230.825 	 23.695 	 -183.225 	
91 	 1151 	 900 	244.545 	 26.005 	 -176.365 	
53 	 1044 	 745 	257.32 	 29.785 	 -169.75 	
26 	 943 	 640 	269.185 	 35.42 	 -163.135 	
32 	 835 	 526 	280.735 	 43.12 	 -156.065 	
52 	 737 	 395 	291.27 	 52.605 	 -148.89 	
62 	 642 	 296 	299.95 	 61.845 	 -142.065 	
45 	 568 	 246 	307.685 	 69.93 	 -134.995 	
47 	 527 	 200 	314.685 	 75.32 	 -127.155 	
54 	 503 	 141 	320.6 	 77.805 	 -118.79 	
67 	 480 	 82 	324.905 	 77.595 	 -110.46 	
72 	 448 	 38 	327.845 	 75.04 	 -102.27 	
84 	 424 	 -24 	330.33 	 70.98 	 -93.975 	
95 	 415 	 -75 	331.485 	 66.885 	 -85.505 	
156 	 396 	 -122 	331.52 	 63.14 	 -77.525 	
188 	 380 	 -168 	331.03 	 60.865 	 -70.525 	
190 	 365 	 -238 	330.12 	 59.815 	 -63.455 	
210 	 327 	 -279 	328.3 	 59.745 	 -56.175 	
244 	 286 	 -300 	325.535 	 59.605 	 -49.42 	
257 	 265 	 -311 	322.84 	 59.815 	 -43.085 	
257 	 295 	 -343 	320.04 	 60.06 	 -36.995 	
276 	 334 	 -389 	316.575 	 60.725 	 -30.975 	
306 	 349 	 -428 	312.76 	 62.23 	 -25.235 	
338 	 348 	 -471 	308.875 	 64.925 	 -19.635 	
364 	 348 	 -511 	304.71 	 68.845 	 -14.175 	
379 	 353 	 -537 	300.405 	 73.745 	 -8.96 	
381 	 358 	 -560 	295.82 	 79.135 	 -3.92 	
375 	 363 	 -573 	290.99 	 84.56 	 0.805 	
346 	 389 	 -593 	286.615 	 88.305 	 5.04 	
334 	 412 	 -607 	281.855 	 91.14 	 9.66 	
359 	 387 	 -602 	275.66 	 92.435 	 14.77 	
411 	 355 	 -579 	270.025 	 93.065 	 18.935 	
372 	 368 	 -616 	265.51 	 93.66 	 21.875 	
367 	 385 	 -702 	260.19 	 92.96 	 25.97 	
347 	 371 	 -688 	253.54 	 92.225 	 29.96 	
339 	 336 	 -642 	247.66 	 90.685 	 32.69 	
318 	 355 	 -688 	243.11 	 87.675 	 35.175 	
235 	 335 	 -674 	237.02 	 84.42 	 37.625 	
280 	 312 	 -695 	231.21 	 78.96 	 39.48 	
221 	 404 	 -712 	224.735 	 75.18 	 40.6 	
277 	 388 	 -634 	217.28 	 71.61 	 43.12 	
398 	 370 	 -627 	210.595 	 71.05 	 44.45 	
419 	 405 	 -703 	204.4 	 74.13 	 44.275 	
424 	 397 	 -784 	197.68 	 78.995 	 45.255 	
363 	 416 	 -763 	190.505 	 87.885 	 46.585 	
434 	 412 	 -826 	182.385 	 96.53 	 47.075 	
393 	 369 	 -801 	175.07 	 108.675 	 47.845 	
389 	 362 	 -838 	169.015 	 121.24 	 49.49 	
437 	 359 	 -904 	161.175 	 133.98 	 50.435 	
423 	 340 	 -873 	152.67 	 146.86 	 50.61 	
371 	 316 	 -841 	145.145 	 158.865 	 51.31 	
350 	 305 	 -886 	137.515 	 169.435 	 52.64 	
330 	 292 	 -904 	128.345 	 178.5 	 53.13 	
278 	 233 	 -874 	118.335 	 185.85 	 53.865 	
211 	 189 	 -871 	108.08 	 191.45 	 54.845 	
172 	 151 	 -917 	95.06 	 194.565 	 56.175 	
204 	 94 	 -957 	78.645 	 194.32 	 58.24 	
156 	 78 	 -1119 	60.795 	 190.12 	 59.85 	
327 	 148 	 -1404 	39.13 	 182 	 65.135 	
622 	 282 	 -1568 	10.605 	 171.99 	 73.29 	
842 	 523 	 -1657 	-24.045 	 158.55 	 81.445 	
895 	 817 	 -1770 	-66.29 	 134.645 	 93.59 	
919 	 949 	 -1820 	-118.3 	 88.235 	 111.23 	
886 	 844 	 -1748 	-170.87 	 15.575 	 133.7 	
819 	 898 	 -2084 	-222.81 	 -80.535 	 158.795 	
898 	 779 	 -2602 	-284.935 	 -182.63 	 188.685 	
1212 	 507 	 -2814 	-347.165 	 -264.075 	 223.44 	
1627 	 565 	 -3373 	-404.67 	 -308.455 	 260.715 	
1927 	 445 	 -3579 	-468.16 	 -313.53 	 299.25 	
1814 	 110 	 -3166 	-530.075 	 -299.425 	 334.635 	
1097 	 -79 	 -2774 	-581.77 	 -290.955 	 367.36 	
467 	 -222 	 -2494 	-630.84 	 -302.68 	 405.195 	
395 	 -579 	 -2089 	-677.215 	 -328.16 	 444.185 	
579 	 -889 	 -1912 	-709.765 	 -347.305 	 472.64 	
612 	 -1049 	 -2008 	-730.765 	 -343.315 	 490.42 	
449 	 -1501 	 -2083 	-747.495 	 -313.355 	 502.32 	
395 	 -2189 	 -1809 	-755.125 	 -262.29 	 508.655 	
608 	 -2612 	 -1514 	-749.98 	 -199.955 	 504.07 	
1019 	 -2983 	 -1299 	-737.38 	 -129.64 	 482.195 	
1191 	 -3345 	 -1032 	-715.015 	 -51.73 	 442.96 	
1116 	 -3435 	 -991 	-681.31 	 31.675 	 394.87 	
1336 	 -3523 	 -1005 	-646.24 	 107.66 	 345.765 	
1552 	 -3466 	 -254 	-609.56 	 167.475 	 284.55 	
1323 	 -3111 	 615 	-558.32 	 199.36 	 211.575 	
1020 	 -2595 	 1017 	-495.6 	 201.11 	 143.535 	
1130 	 -2245 	 1274 	-433.58 	 182.455 	 84.07 	
1549 	 -1869 	 1671 	-371.84 	 158.445 	 27.195 	
1903 	 -1133 	 1772 	-309.61 	 141.715 	 -26.74 	
2057 	 -520 	 2031 	-251.615 	 137.725 	 -73.325 	
2156 	 -11 	 2368 	-196.595 	 141.715 	 -112.595 	
2027 	 536 	 2581 	-144.165 	 145.46 	 -147.245 	
1735 	 1024 	 2737 	-96.985 	 139.65 	 -174.825 	
1525 	 1384 	 2748 	-55.58 	 120.085 	 -192.955 	
1457 	 1657 	 2586 	-20.23 	 91.665 	 -202.825 	
1419 	 1858 	 2343 	8.96 	 61.215 	 -207.235 	
1338 	 1984 	 2094 	32.76 	 36.19 	 -207.34 	
1237 	 2046 	 1856 	53.305 	 19.565 	 -202.58 	
1135 	 2045 	 1623 	72.205 	 11.935 	 -194.075 	
1023 	 2016 	 1394 	88.9 	 11.585 	 -183.4 	
892 	 1921 	 1235 	103.32 	 14.315 	 -171.71 	
724 	 1774 	 1155 	117.25 	 17.01 	 -159.67 	
553 	 1631 	 1025 	131.565 	 18.165 	 -147.14 	
440 	 1449 	 857 	144.865 	 18.095 	 -134.4 	
371 	 1249 	 722 	156.59 	 18.69 	 -122.745 	
311 	 1081 	 620 	167.965 	 21.91 	 -112.665 	
278 	 937 	 513 	179.515 	 28.525 	 -103.565 	
252 	 797 	 421 	190.365 	 38.605 	 -95.445 	
227 	 681 	 363 	200.55 	 49.455 	 -88.095 	
212 	 583 	 331 	209.965 	 59.395 	 -81.2 	
221 	 500 	 285 	218.855 	 66.465 	 -74.62 	
257 	 434 	 239 	226.45 	 70.63 	 -68.145 	
306 	 378 	 191 	232.82 	 72.205 	 -62.02 	
342 	 351 	 139 	238.49 	 72.8 	 -56.035 	
377 	 344 	 85 	243.11 	 73.01 	 -49.525 	
427 	 341 	 42 	246.575 	 73.185 	 -42.7 	
467 	 338 	 3 	249.305 	 73.745 	 -36.225 	
500 	 346 	 -44 	251.09 	 74.655 	 -29.645 	
546 	 358 	 -87 	251.93 	 75.915 	 -22.89 	
601 	 366 	 -121 	252.07 	 77.945 	 -16.31 	
644 	 367 	 -158 	251.58 	 80.675 	 -9.87 	
689 	 367 	 -206 	250.46 	 83.86 	 -3.5 	
742 	 359 	 -256 	248.85 	 87.43 	 2.975 	
778 	 340 	 -261 	247.065 	 91.7 	 9.065 	
811 	 337 	 -294 	244.895 	 95.585 	 14.21 	
785 	 359 	 -298 	242.48 	 100.31 	 19.81 	
860 	 351 	 -312 	239.54 	 103.18 	 26.18 	
893 	 336 	 -301 	236.32 	 105.35 	 30.975 	
851 	 341 	 -291 	233.03 	 105.735 	 35 	
834 	 338 	 -271 	229.11 	 103.355 	 39.76 	
861 	 341 	 -252 	225.05 	 98.175 	 44.52 	
856 	 346 	 -251 	221.375 	 90.86 	 47.985 	
842 	 363 	 -296 	217.875 	 81.34 	 51.065 	
817 	 369 	 -331 	213.605 	 70.35 	 53.97 	
814 	 349 	 -336 	209.51 	 58.205 	 56.63 	
864 	 337 	 -366 	206.115 	 46.445 	 58.835 	
835 	 350 	 -394 	202.51 	 35.63 	 60.585 	
861 	 352 	 -449 	198.52 	 26.39 	 60.34 	
778 	 386 	 -467 	194.985 	 19.915 	 59.92 	
795 	 388 	 -484 	191.59 	 14.98 	 61.215 	
869 	 375 	 -508 	187.775 	 12.775 	 61.005 	
862 	 364 	 -529 	184.03 	 13.58 	 58.59 	
807 	 374 	 -548 	180.53 	 16.94 	 57.225 	
842 	 366 	 -576 	176.855 	 21.805 	 57.085 	
886 	 355 	 -588 	173.18 	 28.35 	 55.405 	
864 	 352 	 -585 	169.715 	 36.4 	 52.64 	
816 	 348 	 -577 	165.97 	 44.975 	 51.275 	
831 	 325 	 -551 	162.225 	 53.55 	 50.47 	
837 	 305 	 -552 	159.04 	 62.125 	 48.58 	
790 	 292 	 -568 	155.68 	 70.28 	 46.55 	
751 	 262 	 -552 	151.935 	 77.315 	 45.43 	
748 	 221 	 -535 	148.54 	 83.16 	 44.38 	
723 	 191 	 -541 	145.88 	 87.815 	 42.805 	
675 	 168 	 -550 	143.01 	 91.805 	 41.405 	
656 	 142 	 -553 	140 	 95.095 	 40.53 	
666 	 120 	 -555 	137.34 	 97.895 	 39.375 	
653 	 117 	 -543 	134.47 	 100.8 	 37.625 	
653 	 71 	 -559 	130.2 	 103.18 	 35.875 	
555 	 -24 	 -506 	125.965 	 106.645 	 33.39 	
506 	 -38 	 -570 	121.59 	 108.955 	 30.87 	
528 	 -73 	 -669 	117.18 	 110.81 	 29.225 	
612 	 -122 	 -700 	110.18 	 111.825 	 25.97 	
634 	 -315 	 -555 	96.145 	 108.08 	 20.265 	
619 	 -631 	 -608 	78.75 	 91.35 	 15.155 	
587 	 -646 	 -1035 	64.26 	 57.645 	 13.615 	
669 	 -354 	 -1311 	40.6 	 -0.245 	 10.92 	
743 	 -51 	 -1188 	-3.955 	 -81.165 	 7.42 	
922 	 96 	 -1118 	-45.99 	 -169.225 	 15.05 	
1534 	 495 	 -1724 	-83.65 	 -245.14 	 24.99 	
2051 	 505 	 -2590 	-137.41 	 -280.735 	 28.245 	
2119 	 143 	 -2871 	-198.8 	 -262.22 	 31.99 	
2135 	 -93 	 -3381 	-257.88 	 -204.89 	 42.21 	
2139 	 -249 	 -3757 	-326.935 	 -131.705 	 52.115 	
1907 	 -446 	 -3232 	-405.65 	 -71.155 	 56.07 	
1437 	 -489 	 -2488 	-476.245 	 -46.375 	 59.15 	
1106 	 -406 	 -2262 	-538.3 	 -60.9 	 68.25 	
1147 	 -600 	 -2206 	-602.21 	 -101.29 	 81.76 	
1281 	 -955 	 -2047 	-663.6 	 -147.56 	 93.135 	
1234 	 -1158 	 -2121 	-717.64 	 -185.395 	 103.39 	
1147 	 -1303 	 -2002 	-765.905 	 -206.465 	 117.425 	
1251 	 -1370 	 -1626 	-806.26 	 -211.61 	 132.685 	
1290 	 -1364 	 -1451 	-832.58 	 -203.595 	 141.225 	
1173 	 -1553 	 -1535 	-848.505 	 -185.85 	 144.27 	
1167 	 -1935 	 -1390 	-858.515 	 -158.375 	 146.37 	
1397 	 -2411 	 -1032 	-855.225 	 -120.4 	 144.095 	
1651 	 -2796 	 -892 	-834.365 	 -71.19 	 132.825 	
1756 	 -2900 	 -895 	-805.805 	 -14.77 	 113.61 	
1689 	 -2750 	 -417 	-773.535 	 42.105 	 89.39 	
1726 	 -2689 	 224 	-726.6 	 87.36 	 62.615 	
1590 	 -2456 	 610 	-666.855 	 114.555 	 28.315 	
1318 	 -2128 	 979 	-606.69 	 118.895 	 -8.05 	
1106 	 -1779 	 1655 	-545.685 	 101.15 	 -39.515 	
1063 	 -1244 	 2267 	-476.98 	 67.76 	 -64.645 	
1119 	 -601 	 2478 	-406.35 	 28.525 	 -85.995 	
1236 	 -208 	 2678 	-340.515 	 -2.66 	 -105.28 	
1266 	 181 	 2780 	-278.53 	 -16.59 	 -123.165 	
1169 	 605 	 2816 	-220.115 	 -11.41 	 -137.41 	
1050 	 892 	 2922 	-166.67 	 4.2 	 -147.595 	
828 	 1115 	 3038 	-117.6 	 18.34 	 -156.485 	
520 	 1303 	 3064 	-73.395 	 23.415 	 -162.47 	
301 	 1434 	 2972 	-35 	 19.915 	 -163.17 	
222 	 1564 	 2783 	-1.855 	 15.75 	 -160.195 	
259 	 1601 	 2620 	26.215 	 16.345 	 -154.49 	
283 	 1574 	 2459 	51.905 	 24.01 	 -149.03 	
160 	 1591 	 2205 	75.215 	 37.485 	 -143.29 	
77 	 1530 	 1989 	94.325 	 52.36 	 -134.085 	
74 	 1404 	 1853 	110.67 	 66.57 	 -123.41 	
92 	 1300 	 1673 	126.56 	 77.945 	 -113.68 	
75 	 1191 	 1468 	140.735 	 86.45 	 -104.125 	
78 	 1060 	 1299 	153.405 	 91.875 	 -93.275 	
153 	 940 	 1130 	165.165 	 94.395 	 -82.075 	
202 	 849 	 984 	176.47 	 94.465 	 -71.785 	
259 	 715 	 829 	186.9 	 92.4 	 -61.6 	
326 	 588 	 660 	195.93 	 89.985 	 -51.94 	
410 	 508 	 494 	203.455 	 88.9 	 -43.47 	
480 	 473 	 388 	210.245 	 91.595 	 -35.42 	
548 	 431 	 301 	216.86 	 97.65 	 -27.58 	
571 	 380 	 187 	222.6 	 105.875 	 -20.335 	
573 	 337 	 102 	226.1 	 113.855 	 -13.615 	
591 	 306 	 82 	228.025 	 120.295 	 -7.21 	
636 	 292 	 59 	229.53 	 125.23 	 -1.225 	
685 	 312 	 7 	230.055 	 129.29 	 4.025 	
724 	 336 	 -26 	228.935 	 132.685 	 8.96 	
756 	 338 	 -31 	226.8 	 135.135 	 13.685 	
783 	 350 	 -50 	224.245 	 136.325 	 17.99 	
794 	 363 	 -68 	220.64 	 136.045 	 21.7 	
796 	 377 	 -64 	216.055 	 133.945 	 24.92 	
803 	 401 	 -52 	211.19 	 130.27 	 27.615 	
813 	 422 	 -58 	206.465 	 125.23 	 29.75 	
832 	 466 	 -80 	201.25 	 119.91 	 31.36 	
884 	 470 	 -112 	196.105 	 115.185 	 32.41 	
942 	 493 	 -122 	190.61 	 112.595 	 32.305 	
964 	 518 	 -127 	184.975 	 112.42 	 32.515 	
1007 	 523 	 -154 	180.005 	 114.695 	 32.935 	
1041 	 531 	 -199 	175.105 	 118.545 	 32.41 	
1017 	 550 	 -202 	170.065 	 123.095 	 31.43 	
1007 	 575 	 -186 	165.515 	 127.365 	 30.87 	
998 	 585 	 -167 	161.35 	 130.76 	 30.625 	
988 	 595 	 -170 	157.36 	 133.525 	 28.875 	
943 	 618 	 -177 	153.58 	 135.135 	 27.16 	
914 	 630 	 -154 	149.8 	 135.87 	 26.46 	
923 	 627 	 -146 	146.685 	 135.73 	 25.62 	
901 	 634 	 -152 	143.675 	 135.8 	 23.87 	
880 	 659 	 -136 	140.735 	 135.905 	 22.435 	
970 	 700 	 -113 	137.515 	 138.18 	 22.715 	
965 	 643 	 -48 	133.595 	 142.8 	 23.905 	
1049 	 612 	 -101 	131.425 	 148.68 	 20.79 	
780 	 721 	 -153 	130.165 	 157.99 	 18.41 	
757 	 753 	 -167 	126.42 	 165.305 	 21.56 	
925 	 666 	 -83 	122.85 	 172.515 	 22.995 	
870 	 665 	 -48 	121.905 	 180.6 	 19.67 	
710 	 712 	 -95 	120.645 	 187.845 	 19.25 	
747 	 698 	 -107 	117.04 	 193.585 	 22.47 	
873 	 667 	 -77 	114.59 	 199.08 	 23.135 	
860 	 703 	 -75 	114.065 	 204.995 	 21.7 	
846 	 772 	 -111 	112.35 	 210.245 	 23.415 	
1013 	 698 	 -198 	110.25 	 215.425 	 27.895 	
976 	 647 	 -123 	109.76 	 223.23 	 27.44 	
908 	 681 	 -188 	108.815 	 232.12 	 28.245 	
892 	 718 	 -336 	107.625 	 244.09 	 33.355 	
981 	 618 	 -217 	106.82 	 257.67 	 37.345 	
911 	 560 	 -40 	104.51 	 274.4 	 37.905 	
838 	 523 	 52 	102.83 	 290.64 	 39.83 	
823 	 494 	 35 	100.625 	 306.04 	 43.505 	
818 	 453 	 33 	96.46 	 319.76 	 45.29 	
738 	 418 	 38 	92.89 	 331.135 	 45.325 	
638 	 443 	 -6 	90.895 	 339.465 	 47.005 	
654 	 465 	 -76 	88.48 	 344.47 	 49.35 	
623 	 457 	 -110 	86.135 	 346.815 	 49.315 	
504 	 444 	 -106 	84.28 	 346.115 	 48.44 	
397 	 427 	 -104 	82.88 	 341.67 	 49.105 	
396 	 424 	 -92 	81.9 	 332.85 	 50.26 	
390 	 436 	 -15 	81.13 	 319.69 	 49.49 	
278 	 431 	 227 	78.75 	 300.615 	 46.62 	
81 	 326 	 496 	74.165 	 273.665 	 43.47 	
-18 	 159 	 633 	70.63 	 234.85 	 40.04 	
-144 	 3 	 499 	68.145 	 181.37 	 35.21 	
-405 	 -165 	 263 	65.24 	 107.065 	 27.335 	
-264 	 -294 	 362 	60.655 	 2.205 	 21.14 	
-259 	 -537 	 519 	57.61 	 -136.815 	 15.26 	
-210 	 -747 	 402 	53.655 	 -312.76 	 5.32 	
-162 	 -591 	 315 	43.365 	 -510.825 	 7.315 	
636 	 -347 	 62 	24.815 	 -709.45 	 20.09 	
2101 	 -9 	 -663 	-9.45 	 -860.09 	 26.985 	
3496 	 440 	 -1984 	-59.36 	 -912.625 	 37.065 	
4974 	 804 	 -2692 	-100.205 	 -848.82 	 50.295 	
5199 	 562 	 -3519 	-137.935 	 -678.265 	 51.38 	
3764 	 778 	 -4006 	-189.98 	 -452.305 	 57.925 	
2833 	 387 	 -2807 	-253.33 	 -261.59 	 80.605 	
2329 	 102 	 -1536 	-306.74 	 -158.97 	 92.19 	
1174 	 530 	 -1024 	-350.14 	 -156.765 	 89.705 	
421 	 472 	 -1013 	-402.36 	 -235.55 	 101.115 	
557 	 -45 	 -1118 	-453.81 	 -334.46 	 125.755 	
1019 	 -297 	 -1495 	-495.46 	 -404.705 	 146.58 	
1127 	 -386 	 -1634 	-534.485 	 -429.135 	 157.255 	
895 	 -496 	 -1303 	-566.72 	 -413.98 	 164.71 	
746 	 -532 	 -1134 	-585.76 	 -374.675 	 173.39 	
802 	 -657 	 -1185 	-599.83 	 -323.225 	 178.605 	
847 	 -1000 	 -964 	-611.765 	 -270.935 	 174.3 	
658 	 -1321 	 -442 	-613.375 	 -223.825 	 162.96 	
499 	 -1326 	 -210 	-603.365 	 -188.545 	 150.92 	
547 	 -1349 	 -54 	-588.035 	 -163.03 	 139.09 	
701 	 -1477 	 260 	-568.225 	 -145.39 	 123.515 	
800 	 -1384 	 510 	-539.875 	 -129.01 	 101.29 	
873 	 -1307 	 592 	-505.4 	 -106.365 	 78.505 	
1057 	 -1200 	 640 	-468.86 	 -75.635 	 54.705 	
1193 	 -1098 	 928 	-429.38 	 -34.79 	 27.93 	
1206 	 -883 	 1217 	-385.805 	 10.045 	 -1.785 	
1116 	 -563 	 1464 	-340.13 	 52.01 	 -29.47 	
1157 	 -385 	 1833 	-296.1 	 84.455 	 -52.85 	
1235 	 -144 	 2188 	-250.81 	 105.945 	 -74.69 	
1221 	 183 	 2314 	-206.045 	 115.675 	 -94.43 	
1147 	 421 	 2450 	-165.9 	 117.425 	 -108.605 	
1135 	 615 	 2597 	-128.695 	 113.645 	 -117.075 	
1133 	 849 	 2664 	-92.925 	 106.05 	 -122.115 	
1104 	 1055 	 2646 	-59.815 	 95.165 	 -124.39 	
1043 	 1195 	 2595 	-30.24 	 81.55 	 -123.9 	
964 	 1295 	 2514 	-3.57 	 66.255 	 -120.68 	
894 	 1373 	 2390 	20.72 	 50.75 	 -115.36 	
845 	 1407 	 2253 	42.7 	 36.19 	 -108.5 	
805 	 1396 	 2124 	63.035 	 23.1 	 -100.94 	
763 	 1365 	 1979 	82.495 	 11.515 	 -93.38 	
717 	 1309 	 1809 	100.835 	 2.17 	 -85.925 	
691 	 1237 	 1646 	118.125 	 -4.41 	 -78.505 	
702 	 1158 	 1509 	134.575 	 -7.315 	 -71.505 	
728 	 1066 	 1378 	150.955 	 -5.95 	 -65.555 	
720 	 980 	 1235 	167.02 	 -0.385 	 -60.305 	
692 	 889 	 1117 	182.385 	 7.875 	 -55.405 	
701 	 757 	 1020 	197.12 	 16.975 	 -50.96 	
680 	 664 	 923 	211.26 	 26.6 	 -47.53 	
628 	 582 	 817 	224.525 	 35.945 	 -44.66 	
620 	 502 	 722 	236.67 	 45.36 	 -41.335 	
667 	 438 	 649 	247.765 	 55.615 	 -38.115 	
705 	 384 	 560 	257.95 	 66.57 	 -35.875 	
691 	 383 	 482 	266.875 	 78.225 	 -33.67 	
699 	 381 	 431 	274.4 	 89.18 	 -30.765 	
734 	 374 	 406 	280.525 	 99.4 	 -27.37 	
771 	 362 	 374 	285.74 	 108.395 	 -24.045 	
800 	 328 	 297 	289.87 	 115.885 	 -20.51 	
823 	 283 	 236 	292.355 	 121.415 	 -16.695 	
855 	 243 	 218 	293.755 	 124.495 	 -12.355 	
892 	 214 	 190 	294.945 	 124.425 	 -8.155 	
924 	 201 	 156 	295.61 	 121.135 	 -4.06 	
916 	 187 	 126 	295.68 	 115.745 	 0.035 	
950 	 174 	 74 	295.26 	 108.01 	 3.745 	
952 	 155 	 56 	294.385 	 99.96 	 7.525 	
959 	 132 	 15 	293.3 	 91.385 	 10.92 	
973 	 112 	 -44 	292.25 	 82.635 	 13.335 	
945 	 100 	 -80 	290.605 	 74.585 	 15.365 	
936 	 88 	 -104 	288.995 	 66.605 	 17.15 	
947 	 81 	 -136 	287.28 	 59.57 	 18.48 	
933 	 88 	 -172 	285.355 	 53.34 	 19.355 	
928 	 95 	 -175 	283.36 	 48.895 	 19.95 	
932 	 107 	 -204 	280.945 	 45.15 	 20.825 	
943 	 152 	 -196 	278.11 	 43.47 	 21.035 	
908 	 138 	 -244 	275.87 	 42.35 	 20.37 	
809 	 170 	 -243 	273.77 	 42.63 	 19.74 	
826 	 184 	 -265 	270.865 	 41.335 	 19.915 	
826 	 202 	 -222 	267.4 	 39.865 	 19.355 	
786 	 229 	 -185 	264.705 	 37.625 	 18.2 	
755 	 271 	 -222 	262.325 	 34.405 	 17.185 	
753 	 288 	 -251 	258.86 	 30.485 	 16.52 	
751 	 281 	 -234 	255.36 	 26.04 	 15.26 	
720 	 283 	 -241 	252.875 	 21.49 	 13.44 	
685 	 284 	 -308 	250.46 	 16.905 	 11.935 	
658 	 275 	 -315 	247.415 	 12.845 	 10.535 	
662 	 249 	 -323 	244.37 	 9.31 	 8.4 	
640 	 245 	 -352 	242.34 	 7.245 	 5.88 	
622 	 252 	 -398 	240.24 	 6.965 	 3.71 	
648 	 244 	 -427 	237.265 	 8.435 	 1.575 	
617 	 224 	 -432 	234.745 	 12.39 	 -1.155 	
609 	 221 	 -476 	232.82 	 18.13 	 -3.99 	
623 	 223 	 -515 	230.475 	 25.83 	 -5.985 	
610 	 219 	 -505 	227.605 	 35.385 	 -8.33 	
553 	 259 	 -415 	224.735 	 45.185 	 -11.27 	
518 	 174 	 -500 	221.585 	 54.775 	 -12.88 	
495 	 133 	 -448 	218.19 	 63.035 	 -15.085 	
373 	 66 	 -376 	212.17 	 69.965 	 -18.235 	
279 	 10 	 -408 	206.465 	 73.255 	 -21.245 	
159 	 -8 	 -595 	201.635 	 72.835 	 -24.22 	
117 	 -39 	 -817 	191.275 	 67.445 	 -27.545 	
273 	 -220 	 -821 	173.6 	 56.07 	 -28.56 	
551 	 -331 	 -1050 	155.995 	 32.41 	 -28.77 	
862 	 -137 	 -2025 	136.71 	 9.03 	 -27.405 	
1306 	 349 	 -2434 	97.755 	 -9.17 	 -25.095 	
1467 	 706 	 -1872 	48.195 	 -10.745 	 -23.765 	
1551 	 754 	 -2049 	4.2 	 -4.725 	 -17.29 	
1428 	 869 	 -2544 	-43.015 	 4.48 	 -9.31 	
1102 	 735 	 -2600 	-107.52 	 1.085 	 -5.32 	
843 	 582 	 -2449 	-179.165 	 -16.485 	 0.245 	
991 	 580 	 -2623 	-249.2 	 -40.215 	 13.37 	
1574 	 465 	 -2804 	-323.54 	 -58.345 	 30.975 	
2015 	 216 	 -2692 	-398.93 	 -68.285 	 43.575 	
1817 	 51 	 -2542 	-469.49 	 -78.47 	 53.13 	
1316 	 -89 	 -2381 	-536.2 	 -99.61 	 69.02 	
1069 	 -384 	 -2178 	-600.145 	 -135.345 	 93.59 	
1209 	 -763 	 -2011 	-656.425 	 -177.94 	 119.98 	
1287 	 -934 	 -1835 	-701.89 	 -214.27 	 141.435 	
1121 	 -868 	 -1545 	-738.43 	 -238.035 	 160.195 	
1016 	 -930 	 -1405 	-762.335 	 -248.01 	 180.425 	
858 	 -1263 	 -1395 	-774.515 	 -242.795 	 198.555 	
1035 	 -1681 	 -1368 	-780.675 	 -231.14 	 213.325 	
1204 	 -2035 	 -968 	-775.565 	 -209.405 	 220.43 	
1311 	 -2139 	 -778 	-754.425 	 -179.48 	 220.01 	
1469 	 -2245 	 -709 	-726.005 	 -138.53 	 214.13 	
1578 	 -2259 	 -332 	-691.39 	 -83.965 	 201.67 	
1610 	 -2335 	 -77 	-646.275 	 -21.315 	 180.215 	
1581 	 -2273 	 45 	-595.91 	 40.32 	 148.19 	
1299 	 -2174 	 528 	-544.67 	 92.47 	 110.495 	
1114 	 -2008 	 1241 	-485.66 	 122.57 	 70.665 	
961 	 -1517 	 1639 	-420.35 	 130.445 	 29.96 	
884 	 -1097 	 1941 	-357.42 	 121.765 	 -7.665 	
991 	 -750 	 2248 	-296.94 	 106.505 	 -41.825 	
1206 	 -331 	 2444 	-237.335 	 96.075 	 -72.345 	
1422 	 79 	 2552 	-181.16 	 95.9 	 -99.715 	
1474 	 397 	 2662 	-130.41 	 104.335 	 -125.79 	
1342 	 678 	 2765 	-84.315 	 114.765 	 -148.435 	
1140 	 927 	 2805 	-42.7 	 120.715 	 -166.005 	
983 	 1160 	 2774 	-6.72 	 119.595 	 -177.975 	
971 	 1340 	 2702 	23.275 	 111.79 	 -184.73 	
984 	 1459 	 2629 	49.665 	 101.115 	 -188.72 	
937 	 1589 	 2425 	72.905 	 90.125 	 -190.855 	
836 	 1664 	 2203 	91.945 	 80.01 	 -189.49 	
782 	 1638 	 2042 	107.485 	 70.875 	 -184.905 	
762 	 1600 	 1847 	121.8 	 63.385 	 -179.165 	
733 	 1551 	 1624 	134.645 	 58.275 	 -173.04 	
692 	 1462 	 1443 	145.915 	 56.035 	 -166.25 	
644 	 1360 	 1298 	156.765 	 56.35 	 -158.69 	
618 	 1260 	 1138 	167.755 	 58.135 	 -150.71 	
611 	 1159 	 980 	177.905 	 61.04 	 -142.8 	
590 	 1060 	 871 	187.565 	 64.435 	 -135.24 	
559 	 960 	 786 	197.155 	 68.39 	 -127.47 	
554 	 863 	 689 	206.57 	 72.485 	 -119.315 	
553 	 777 	 597 	215.075 	 75.985 	 -111.195 	
537 	 690 	 541 	222.565 	 77.91 	 -103.25 	
523 	 615 	 506 	229.46 	 77.175 	 -95.55 	
494 	 551 	 475 	235.62 	 73.465 	 -87.815 	
467 	 501 	 443 	240.66 	 66.745 	 -79.835 	
457 	 448 	 400 	244.545 	 57.225 	 -71.96 	
466 	 419 	 358 	247.345 	 45.815 	 -64.68 	
479 	 416 	 307 	249.515 	 33.915 	 -57.925 	
496 	 427 	 255 	250.635 	 22.75 	 -51.73 	
534 	 432 	 182 	250.985 	 13.265 	 -46.165 	
550 	 431 	 137 	250.39 	 6.58 	 -40.565 	
612 	 414 	 65 	248.955 	 2.135 	 -35.455 	
632 	 412 	 7 	247.275 	 0.035 	 -31.535 	
620 	 416 	 -28 	244.93 	 -0.315 	 -27.895 	
635 	 409 	 -59 	242.06 	 0.245 	 -24.22 	
647 	 408 	 -84 	239.225 	 1.82 	 -21.21 	
629 	 421 	 -122 	236.25 	 4.165 	 -18.9 	
635 	 410 	 -187 	232.995 	 6.79 	 -16.555 	
639 	 400 	 -191 	229.6 	 10.675 	 -14.77 	
638 	 404 	 -205 	225.995 	 15.715 	 -13.44 	
652 	 412 	 -231 	222.635 	 22.015 	 -12.075 	
667 	 425 	 -257 	219.065 	 29.54 	 -10.885 	
683 	 431 	 -267 	215.145 	 37.765 	 -9.94 	
689 	 434 	 -271 	211.505 	 46.445 	 -9.17 	
709 	 459 	 -276 	207.865 	 55.825 	 -7.805 	
737 	 472 	 -286 	203.945 	 64.61 	 -6.825 	
691 	 507 	 -267 	199.99 	 73.5 	 -6.65 	
685 	 523 	 -268 	196.35 	 80.675 	 -5.215 	
710 	 538 	 -255 	192.57 	 86.45 	 -3.57 	
704 	 563 	 -228 	188.65 	 90.685 	 -2.905 	
679 	 590 	 -211 	184.835 	 93.03 	 -2.485 	
662 	 598 	 -196 	181.265 	 93.24 	 -1.12 	
667 	 589 	 -188 	177.415 	 91.77 	 0.21 	
653 	 575 	 -176 	173.67 	 88.76 	 0.63 	
620 	 576 	 -179 	170.345 	 84.385 	 0.945 	
601 	 580 	 -196 	167.265 	 78.715 	 1.54 	
589 	 573 	 -185 	163.835 	 72.52 	 1.855 	
579 	 559 	 -190 	160.685 	 65.59 	 1.645 	
549 	 559 	 -207 	158.13 	 58.975 	 1.26 	
539 	 559 	 -229 	155.365 	 52.605 	 1.155 	
549 	 551 	 -235 	152.53 	 46.55 	 0.63 	
545 	 549 	 -235 	150.01 	 41.265 	 -0.35 	
535 	 556 	 -252 	147.77 	 36.505 	 -1.225 	
539 	 558 	 -267 	145.25 	 32.445 	 -1.89 	
545 	 551 	 -269 	142.695 	 29.26 	 -2.8 	
546 	 541 	 -286 	140.525 	 26.985 	 -3.815 	
538 	 541 	 -309 	138.18 	 25.305 	 -4.76 	
539 	 540 	 -318 	135.835 	 24.5 	 -5.565 	
552 	 542 	 -313 	133.805 	 24.64 	 -6.545 	
553 	 554 	 -314 	131.845 	 25.83 	 -7.42 	
541 	 563 	 -313 	129.605 	 27.475 	 -8.12 	
548 	 535 	 -353 	127.365 	 29.225 	 -8.61 	
524 	 523 	 -351 	125.825 	 31.22 	 -9.415 	
490 	 521 	 -374 	124.11 	 33.46 	 -10.185 	
485 	 501 	 -398 	122.5 	 35.98 	 -10.535 	
484 	 481 	 -419 	121.415 	 39.025 	 -10.99 	
467 	 460 	 -437 	120.4 	 42.525 	 -11.585 	
443 	 445 	 -453 	119.175 	 46.34 	 -12.04 	
429 	 431 	 -460 	118.37 	 50.12 	 -12.215 	
416 	 418 	 -461 	117.705 	 53.515 	 -12.25 	
393 	 414 	 -452 	116.725 	 56.28 	 -12.495 	
364 	 405 	 -424 	115.885 	 58.205 	 -12.11 	
328 	 411 	 -415 	115.115 	 58.485 	 -11.34 	
311 	 415 	 -431 	113.96 	 56.91 	 -10.99 	
253 	 402 	 -409 	111.615 	 53.655 	 -10.395 	
197 	 375 	 -408 	109.375 	 48.405 	 -9.52 	
169 	 318 	 -486 	107.065 	 42.07 	 -8.295 	
185 	 242 	 -635 	102.935 	 35.07 	 -6.055 	
206 	 204 	 -759 	96.6 	 28.91 	 -2.52 	
296 	 264 	 -903 	88.06 	 24.745 	 2.345 	
507 	 276 	 -1191 	77.49 	 23.835 	 10.395 	
750 	 223 	 -1516 	63.77 	 27.79 	 19.46 	
826 	 345 	 -1588 	43.82 	 36.33 	 26.005 	
792 	 464 	 -1704 	19.635 	 44.24 	 35.595 	
684 	 597 	 -1777 	-7.735 	 48.265 	 49.665 	
681 	 731 	 -1712 	-42.63 	 41.93 	 65.205 	
554 	 762 	 -1624 	-83.335 	 23.555 	 81.375 	
536 	 640 	 -1726 	-126.98 	 -9.17 	 100.38 	
568 	 572 	 -1881 	-172.27 	 -51.31 	 120.435 	
608 	 526 	 -2104 	-223.545 	 -97.405 	 142.59 	
797 	 390 	 -2221 	-281.785 	 -142.87 	 169.26 	
1180 	 120 	 -2278 	-338.52 	 -184.205 	 199.01 	
1494 	 11 	 -2319 	-390.32 	 -218.575 	 227.78 	
1540 	 -6 	 -2263 	-442.925 	 -248.115 	 255.605 	
1470 	 -160 	 -2147 	-495.355 	 -276.99 	 287.105 	
1469 	 -358 	 -1966 	-540.4 	 -304.955 	 321.755 	
1573 	 -511 	 -2052 	-579.39 	 -332.955 	 354.655 	
1626 	 -674 	 -2150 	-615.65 	 -353.01 	 383.005 	
1628 	 -951 	 -2052 	-645.47 	 -360.325 	 407.645 	
1722 	 -1177 	 -2041 	-665 	 -352.87 	 428.505 	
1837 	 -1365 	 -2077 	-678.44 	 -329.21 	 441.07 	
1815 	 -1735 	 -1827 	-687.925 	 -291.865 	 442.085 	
1958 	 -2001 	 -1502 	-688.03 	 -245.07 	 433.685 	
1987 	 -2175 	 -1368 	-680.4 	 -184.87 	 414.575 	
1884 	 -2275 	 -1266 	-670.985 	 -113.085 	 382.935 	
1779 	 -2298 	 -980 	-659.575 	 -32.97 	 343.42 	
1708 	 -2410 	 -469 	-642.25 	 48.545 	 293.16 	
1601 	 -2221 	 -44 	-616.315 	 120.995 	 229.46 	
1394 	 -2138 	 518 	-582.96 	 180.915 	 161.595 	
1221 	 -2086 	 813 	-540.19 	 219.065 	 90.09 	
1063 	 -1997 	 1227 	-490.315 	 240.38 	 18.83 	
1253 	 -1653 	 1452 	-440.93 	 244.72 	 -45.675 	
1387 	 -1382 	 2008 	-388.15 	 242.06 	 -106.645 	
1475 	 -990 	 2386 	-328.79 	 235.2 	 -158.725 	
1671 	 -552 	 2493 	-269.29 	 226.695 	 -200.55 	
1764 	 -263 	 2758 	-214.375 	 217 	 -236.11 	
1630 	 60 	 3083 	-160.44 	 203.98 	 -265.79 	
1376 	 485 	 3205 	-107.275 	 185.15 	 -285.25 	
1189 	 772 	 3219 	-59.185 	 158.62 	 -293.755 	
1081 	 970 	 3219 	-17.43 	 124.67 	 -296.135 	
972 	 1226 	 3117 	19.845 	 86.065 	 -295.05 	
862 	 1460 	 2902 	52.605 	 49.14 	 -288.68 	
799 	 1571 	 2648 	80.605 	 19.25 	 -276.78 	
761 	 1613 	 2394 	104.895 	 -1.855 	 -262.185 	
639 	 1627 	 2167 	126.07 	 -15.75 	 -246.715 	
487 	 1609 	 1960 	144.655 	 -26.635 	 -230.02 	
332 	 1542 	 1808 	161.105 	 -36.295 	 -212.24 	
223 	 1456 	 1643 	176.575 	 -46.06 	 -194.32 	
146 	 1361 	 1462 	190.925 	 -55.02 	 -177.065 	
98 	 1261 	 1302 	203.595 	 -62.825 	 -160.895 	
42 	 1149 	 1186 	215.565 	 -68.145 	 -146.055 	
0 	 1017 	 1039 	227.08 	 -70.945 	 -131.67 	
34 	 925 	 849 	237.44 	 -70.91 	 -117.88 	
84 	 841 	 735 	246.295 	 -67.585 	 -105.805 	
94 	 753 	 667 	255.08 	 -61.495 	 -95.48 	
95 	 701 	 550 	263.62 	 -52.885 	 -85.26 	
138 	 638 	 428 	270.48 	 -42.98 	 -74.97 	
184 	 541 	 377 	275.905 	 -32.06 	 -65.94 	
183 	 467 	 332 	281.26 	 -20.86 	 -57.96 	
188 	 450 	 240 	285.915 	 -10.185 	 -49.91 	
233 	 430 	 155 	289.1 	 -0.385 	 -41.685 	
285 	 387 	 112 	291.27 	 8.365 	 -34.125 	
319 	 354 	 67 	293.055 	 15.89 	 -27.16 	
337 	 346 	 16 	294.245 	 21.665 	 -20.3 	
395 	 331 	 -40 	294.245 	 25.48 	 -13.475 	
423 	 323 	 -59 	293.615 	 28.07 	 -6.72 	
488 	 300 	 -118 	292.46 	 28.7 	 -0.35 	
508 	 296 	 -173 	291.06 	 29.05 	 5.25 	
529 	 290 	 -221 	289.1 	 28.805 	 10.885 	
576 	 275 	 -269 	286.825 	 28.595 	 16.17 	
604 	 267 	 -313 	284.515 	 28.735 	 20.615 	
638 	 264 	 -354 	282.135 	 29.4 	 24.78 	
672 	 257 	 -388 	279.475 	 30.485 	 28.7 	
685 	 250 	 -408 	276.605 	 32.13 	 32.165 	
688 	 243 	 -428 	273.805 	 33.775 	 35.28 	
701 	 226 	 -468 	271.18 	 35.14 	 38.255 	
710 	 200 	 -476 	268.1 	 36.61 	 40.355 	
690 	 183 	 -484 	264.95 	 38.36 	 42.07 	
685 	 166 	 -514 	262.115 	 40.425 	 43.82 	
713 	 148 	 -541 	259.35 	 43.12 	 45.395 	
705 	 146 	 -540 	255.815 	 46.9 	 46.34 	
696 	 158 	 -542 	252.56 	 51.555 	 46.13 	
657 	 184 	 -564 	249.795 	 56.84 	 46.48 	
659 	 197 	 -583 	246.47 	 62.265 	 47.285 	
670 	 180 	 -569 	242.62 	 67.935 	 46.935 	
634 	 170 	 -563 	239.12 	 73.465 	 45.78 	
593 	 188 	 -594 	236.075 	 78.75 	 45.255 	
596 	 196 	 -614 	232.47 	 83.545 	 44.94 	
583 	 203 	 -602 	228.655 	 87.71 	 43.365 	
534 	 213 	 -570 	225.085 	 91.945 	 41.51 	
521 	 217 	 -583 	221.41 	 95.375 	 40.32 	
506 	 220 	 -582 	217.525 	 98.7 	 38.57 	
480 	 222 	 -581 	213.64 	 101.64 	 36.4 	
439 	 220 	 -594 	209.895 	 104.475 	 34.23 	
439 	 210 	 -629 	206.22 	 106.75 	 32.2 	
420 	 161 	 -672 	202.3 	 109.2 	 29.645 	
338 	 87 	 -691 	197.82 	 112.595 	 25.725 	
241 	 32 	 -735 	192.71 	 116.445 	 21.525 	
229 	 -38 	 -830 	188.09 	 121.065 	 18.62 	
281 	 -93 	 -996 	184.275 	 127.12 	 15.26 	
328 	 -131 	 -1131 	178.99 	 135.31 	 10.465 	
282 	 -168 	 -1044 	169.225 	 147.98 	 4.865 	
376 	 -275 	 -1043 	154.07 	 160.965 	 0.56 	
536 	 -401 	 -1289 	137.655 	 174.685 	 -1.015 	
770 	 -265 	 -1717 	116.76 	 189.175 	 -1.715 	
1019 	 -1 	 -1839 	84.84 	 205.24 	 -2.03 	
1106 	 187 	 -1595 	45.08 	 219.625 	 -0.56 	
1142 	 184 	 -1577 	3.64 	 222.39 	 1.995 	
926 	 179 	 -1598 	-40.915 	 204.68 	 3.08 	
661 	 -34 	 -1699 	-98.175 	 154.875 	 4.69 	
670 	 -507 	 -1818 	-159.985 	 81.235 	 12.67 	
1067 	 -679 	 -2185 	-218.295 	 5.985 	 24.57 	
1733 	 -677 	 -2949 	-285.25 	 -47.705 	 35.56 	
2099 	 -761 	 -3006 	-362.495 	 -63.805 	 44.065 	
2122 	 -815 	 -2830 	-435.295 	 -56.245 	 52.955 	
1810 	 -755 	 -2765 	-501.095 	 -45.045 	 63.42 	
1447 	 -754 	 -2658 	-567.665 	 -47.565 	 76.685 	
1314 	 -839 	 -2352 	-634.13 	 -65.87 	 93.345 	
1375 	 -820 	 -2000 	-693.945 	 -91.63 	 110.215 	
1430 	 -678 	 -1756 	-745.605 	 -117.46 	 126.49 	
1421 	 -534 	 -1528 	-791.945 	 -141.645 	 143.045 	
1334 	 -410 	 -1287 	-831.25 	 -164.78 	 158.9 	
1194 	 -390 	 -1155 	-859.425 	 -186.13 	 173.915 	
1149 	 -564 	 -1124 	-876.75 	 -202.58 	 189.14 	
1329 	 -1005 	 -835 	-881.65 	 -208.775 	 203.805 	
1939 	 -1780 	 -559 	-869.19 	 -201.145 	 220.185 	
2472 	 -2486 	 -598 	-842.065 	 -170.17 	 224.525 	
2436 	 -2630 	 -752 	-807.52 	 -114.345 	 211.54 	
2282 	 -2511 	 -501 	-770.105 	 -38.325 	 195.685 	
2198 	 -2461 	 132 	-719.495 	 41.825 	 171.395 	
1923 	 -2483 	 632 	-651.455 	 109.515 	 131.775 	
1383 	 -2228 	 802 	-579.985 	 153.335 	 82.04 	
1008 	 -2033 	 1440 	-510.16 	 171.185 	 35.665 	
927 	 -1675 	 2117 	-434.455 	 166.915 	 -8.61 	
724 	 -1158 	 2722 	-354.235 	 146.265 	 -53.235 	
722 	 -864 	 2999 	-273.945 	 112.455 	 -89.53 	
969 	 -336 	 2894 	-202.405 	 75.635 	 -119.35 	
1172 	 -30 	 3305 	-140.84 	 50.54 	 -146.545 	
1380 	 239 	 3437 	-78.855 	 39.97 	 -172.2 	
1215 	 626 	 3172 	-19.95 	 45.99 	 -195.965 	
928 	 860 	 2996 	26.425 	 59.29 	 -211.785 	
785 	 967 	 3052 	64.47 	 71.12 	 -220.745 	
687 	 1192 	 3012 	100.8 	 78.4 	 -226.205 	
595 	 1400 	 2716 	131.915 	 81.095 	 -227.885 	
522 	 1434 	 2477 	154.525 	 81.27 	 -224.91 	
484 	 1386 	 2357 	172.795 	 80.815 	 -218.96 	
471 	 1407 	 2133 	190.05 	 80.71 	 -211.82 	
425 	 1418 	 1844 	204.155 	 82.005 	 -202.79 	
426 	 1314 	 1668 	214.55 	 83.72 	 -191.8 	
411 	 1218 	 1541 	223.93 	 85.47 	 -180.215 	
388 	 1194 	 1367 	232.89 	 85.855 	 -167.055 	
436 	 1132 	 1228 	239.75 	 83.125 	 -152.845 	
466 	 1004 	 1161 	245.7 	 77.49 	 -140.14 	
405 	 931 	 1025 	252.07 	 69.545 	 -128.66 	
351 	 881 	 848 	256.515 	 60.48 	 -115.885 	
396 	 747 	 742 	259.525 	 51.345 	 -102.41 	
451 	 624 	 646 	262.465 	 43.785 	 -91 	
445 	 557 	 517 	265.44 	 38.01 	 -81.9 	
427 	 487 	 417 	267.33 	 35.035 	 -72.66 	
468 	 402 	 348 	268.59 	 34.09 	 -63.14 	
513 	 335 	 270 	270.06 	 35.21 	 -55.3 	
498 	 301 	 194 	270.655 	 37.555 	 -49.035 	
465 	 267 	 153 	269.99 	 39.55 	 -42.84 	
462 	 235 	 130 	269.395 	 40.6 	 -36.75 	
498 	 226 	 94 	268.625 	 40.845 	 -31.71 	
512 	 250 	 47 	267.19 	 41.09 	 -28 	
515 	 281 	 19 	264.985 	 42.035 	 -24.78 	
545 	 296 	 -14 	262.64 	 44.345 	 -21.595 	
592 	 310 	 -74 	260.26 	 48.16 	 -18.76 	
620 	 322 	 -118 	257.32 	 53.375 	 -16.8 	
654 	 308 	 -171 	254.1 	 59.745 	 -15.365 	
648 	 318 	 -205 	251.125 	 66.78 	 -13.475 	
703 	 304 	 -251 	247.87 	 73.535 	 -11.62 	
721 	 329 	 -274 	244.755 	 80.745 	 -10.745 	
724 	 369 	 -273 	241.675 	 87.43 	 -9.625 	
751 	 413 	 -239 	238.42 	 93.205 	 -8.05 	
775 	 457 	 -229 	235.13 	 97.3 	 -6.685 	
765 	 469 	 -240 	232.155 	 100.205 	 -5.32 	
774 	 491 	 -240 	228.41 	 100.905 	 -3.85 	
749 	 491 	 -194 	224.315 	 100.03 	 -2.275 	
743 	 497 	 -195 	221.27 	 96.705 	 -0.525 	
743 	 526 	 -223 	218.26 	 91.805 	 0.84 	
741 	 552 	 -221 	214.445 	 85.505 	 1.925 	
751 	 576 	 -186 	210.875 	 78.925 	 3.15 	
767 	 610 	 -192 	208.11 	 72.695 	 4.235 	
795 	 632 	 -256 	204.855 	 67.62 	 5.25 	
819 	 600 	 -275 	201.075 	 64.995 	 6.93 	
877 	 560 	 -306 	197.89 	 63.245 	 7.315 	
787 	 571 	 -340 	195.51 	 64.085 	 6.405 	
758 	 577 	 -371 	192.57 	 65.415 	 7.665 	
817 	 549 	 -364 	189.28 	 67.62 	 8.925 	
808 	 547 	 -359 	186.97 	 70.91 	 8.155 	
736 	 562 	 -391 	184.905 	 74.48 	 7.63 	
734 	 552 	 -403 	182.21 	 77.7 	 8.61 	
755 	 512 	 -383 	179.235 	 81.2 	 9.135 	
735 	 480 	 -383 	177.31 	 84.735 	 8.575 	
685 	 472 	 -432 	175.735 	 88.095 	 8.47 	
669 	 446 	 -449 	173.18 	 91.49 	 9.345 	
662 	 407 	 -424 	171.115 	 94.745 	 9.59 	
632 	 390 	 -438 	170.1 	 98.105 	 9.31 	
601 	 383 	 -474 	168.7 	 101.605 	 9.73 	
605 	 355 	 -474 	166.67 	 105.105 	 10.535 	
594 	 312 	 -471 	165.305 	 108.71 	 10.675 	
527 	 275 	 -514 	164.395 	 112.385 	 10.255 	
450 	 234 	 -570 	163.03 	 115.71 	 10.08 	
380 	 161 	 -587 	161.35 	 119.21 	 9.485 	
270 	 89 	 -616 	159.74 	 122.92 	 7.245 	
93 	 14 	 -684 	158.235 	 126.56 	 4.305 	
-85 	 -79 	 -742 	155.96 	 128.835 	 0.525 	
-261 	 -213 	 -716 	151.025 	 128.555 	 -5.18 	
-447 	 -377 	 -624 	142.24 	 123.165 	 -11.2 	
-439 	 -307 	 -823 	132.79 	 109.655 	 -14.28 	
-24 	 -110 	 -1223 	119.56 	 90.37 	 -8.505 	
735 	 205 	 -1544 	93.59 	 73.29 	 1.68 	
1407 	 772 	 -1616 	55.965 	 69.65 	 9.45 	
1834 	 1305 	 -1526 	18.585 	 80.08 	 19.845 	
1792 	 1413 	 -1543 	-19.67 	 92.365 	 34.055 	
1465 	 1198 	 -1774 	-66.57 	 86.52 	 51.17 	
1118 	 780 	 -1916 	-124.81 	 49.49 	 72.695 	
1169 	 315 	 -1880 	-187.845 	 -16.52 	 97.51 	
1482 	 94 	 -2168 	-249.83 	 -94.29 	 120.645 	
1807 	 108 	 -2450 	-314.685 	 -158.06 	 144.97 	
2197 	 0 	 -2416 	-380.59 	 -198.45 	 172.27 	
2232 	 -136 	 -2250 	-441.98 	 -220.43 	 196.7 	
1820 	 -307 	 -2164 	-499.625 	 -239.68 	 218.995 	
1346 	 -472 	 -1816 	-553.455 	 -267.05 	 243.495 	
1112 	 -537 	 -1602 	-598.92 	 -302.295 	 269.185 	
1122 	 -720 	 -1813 	-635.6 	 -334.39 	 292.32 	
1216 	 -1065 	 -2023 	-666.925 	 -349.615 	 310.1 	
1238 	 -1603 	 -1986 	-689.955 	 -343.315 	 321.58 	
1241 	 -2010 	 -1821 	-700.98 	 -316.82 	 326.725 	
1348 	 -2241 	 -1543 	-701.435 	 -275.555 	 324.485 	
1374 	 -2517 	 -1340 	-693.525 	 -222.285 	 311.85 	
1312 	 -2580 	 -1196 	-680.645 	 -159.565 	 290.185 	
1235 	 -2496 	 -798 	-664.615 	 -87.815 	 259.56 	
1240 	 -2480 	 -257 	-640.71 	 -13.195 	 220.395 	
1229 	 -2366 	 28 	-605.71 	 58.17 	 169.82 	
1081 	 -2273 	 287 	-567.07 	 119.7 	 113.365 	
1132 	 -2191 	 780 	-526.225 	 161.035 	 57.925 	
1291 	 -1845 	 1403 	-478.415 	 181.335 	 5.425 	
1529 	 -1384 	 1879 	-424.55 	 180.32 	 -43.995 	
1668 	 -924 	 2129 	-368.095 	 165.165 	 -87.535 	
1779 	 -506 	 2331 	-313.11 	 145.46 	 -121.625 	
1973 	 -74 	 2494 	-260.4 	 128.87 	 -147.595 	
2044 	 331 	 2696 	-209.37 	 119 	 -168.665 	
1884 	 730 	 2880 	-159.74 	 111.125 	 -185.29 	
1594 	 1119 	 2979 	-112.84 	 99.575 	 -195.79 	
1318 	 1388 	 3010 	-70.455 	 81.025 	 -199.675 	
1109 	 1579 	 2919 	-32.935 	 56.945 	 -198.905 	
958 	 1697 	 2771 	-0.35 	 32.34 	 -195.37 	
847 	 1748 	 2573 	28.63 	 12.46 	 -190.785 	
654 	 1805 	 2309 	54.775 	 0.98 	 -184.835 	
490 	 1803 	 2075 	77.385 	 -2.8 	 -175.77 	
421 	 1732 	 1937 	97.055 	 -1.435 	 -164.57 	
371 	 1660 	 1813 	115.71 	 1.715 	 -154.315 	
246 	 1604 	 1656 	133.105 	 4.55 	 -145.075 	
130 	 1522 	 1497 	148.33 	 7 	 -133.945 	
138 	 1397 	 1378 	161.91 	 10.045 	 -120.61 	
206 	 1279 	 1276 	175.105 	 14.28 	 -108.325 	
224 	 1200 	 1200 	188.23 	 20.58 	 -97.79 	
222 	 1100 	 1075 	201.425 	 28.63 	 -86.975 	
269 	 945 	 898 	213.535 	 38.71 	 -75.285 	
356 	 787 	 774 	223.58 	 50.19 	 -63.945 	
398 	 661 	 755 	232.82 	 62.02 	 -54.11 	
381 	 577 	 749 	242.585 	 71.75 	 -45.045 	
377 	 498 	 721 	252.105 	 78.225 	 -35.7 	
414 	 419 	 684 	260.26 	 81.34 	 -26.845 	
466 	 374 	 648 	267.26 	 82.53 	 -19.215 	
525 	 342 	 599 	273.455 	 82.915 	 -12.39 	
582 	 305 	 528 	278.915 	 83.265 	 -6.09 	
625 	 279 	 448 	283.045 	 84.385 	 -0.35 	
665 	 250 	 380 	286.195 	 85.61 	 4.97 	
697 	 229 	 327 	288.61 	 86.555 	 9.59 	
726 	 223 	 290 	290.5 	 87.36 	 13.685 	
777 	 226 	 258 	291.795 	 88.025 	 17.465 	
826 	 223 	 207 	292.495 	 88.725 	 20.79 	
852 	 196 	 123 	292.81 	 89.18 	 23.73 	
866 	 144 	 39 	292.495 	 89.215 	 26.6 	
876 	 82 	 -8 	291.515 	 88.27 	 29.155 	
865 	 32 	 -36 	290.5 	 86.38 	 31.185 	
865 	 -3 	 -80 	290.045 	 83.09 	 33.25 	
875 	 -8 	 -138 	289.485 	 79.24 	 34.58 	
856 	 -5 	 -178 	288.19 	 74.9 	 35.28 	
841 	 -9 	 -194 	286.79 	 70.595 	 36.54 	
893 	 -13 	 -246 	285.915 	 66.045 	 38.045 	
927 	 37 	 -327 	284.9 	 63.7 	 38.605 	
913 	 -30 	 -305 	282.275 	 63.63 	 39.48 	
981 	 -75 	 -338 	280.595 	 64.54 	 39.83 	
876 	 -13 	 -394 	279.72 	 68.635 	 39.69 	
878 	 18 	 -458 	277.06 	 72.275 	 41.475 	
937 	 10 	 -442 	274.12 	 76.125 	 42.7 	
934 	 17 	 -439 	272.475 	 80.64 	 42.98 	
914 	 47 	 -494 	270.585 	 85.19 	 43.89 	
924 	 61 	 -515 	267.33 	 89.145 	 45.745 	
932 	 44 	 -466 	264.355 	 92.61 	 47.04 	
921 	 40 	 -454 	261.73 	 94.885 	 48.055 	
890 	 76 	 -466 	258.825 	 95.9 	 49.315 	
880 	 98 	 -467 	255.045 	 95.2 	 50.75 	
870 	 109 	 -438 	251.37 	 92.82 	 51.975 	
856 	 106 	 -421 	248.045 	 88.76 	 52.885 	
834 	 103 	 -430 	244.475 	 83.405 	 53.725 	
827 	 84 	 -432 	240.38 	 76.86 	 54.39 	
817 	 61 	 -415 	236.32 	 69.615 	 54.74 	
800 	 43 	 -409 	232.4 	 61.95 	 54.635 	
777 	 35 	 -427 	228.06 	 54.215 	 54.18 	
765 	 11 	 -448 	223.615 	 46.41 	 53.795 	
777 	 -41 	 -471 	218.96 	 38.745 	 52.675 	
768 	 -116 	 -493 	213.605 	 31.78 	 50.19 	
684 	 -193 	 -481 	206.605 	 26.075 	 45.92 	
554 	 -229 	 -479 	198.625 	 20.615 	 40.635 	
494 	 -267 	 -611 	190.085 	 13.65 	 35.385 	
461 	 -278 	 -803 	180.775 	 3.535 	 28.875 	
383 	 -357 	 -1001 	168.35 	 -10.955 	 20.3 	
289 	 -297 	 -1036 	150.255 	 -29.19 	 10.71 	
307 	 -185 	 -1068 	126.49 	 -52.605 	 2.135 	
475 	 18 	 -1497 	95.515 	 -78.61 	 -4.655 	
716 	 396 	 -1771 	59.01 	 -93.03 	 -8.82 	
1157 	 808 	 -1762 	14.455 	 -88.13 	 -13.125 	
1353 	 865 	 -2013 	-37.905 	 -61.495 	 -20.79 	
1237 	 559 	 -2239 	-92.47 	 -19.46 	 -28.28 	
967 	 296 	 -2514 	-148.995 	 21.07 	 -33.565 	
725 	 72 	 -2703 	-213.22 	 48.09 	 -37.485 	
735 	 -99 	 -2597 	-284.27 	 58.065 	 -37.59 	
1025 	 -193 	 -2354 	-353.99 	 53.095 	 -35.49 	
1301 	 -174 	 -2166 	-419.72 	 37.52 	 -33.915 	
1407 	 -92 	 -1937 	-483.245 	 12.67 	 -30.94 	
1384 	 -33 	 -1592 	-542.64 	 -19.04 	 -23.52 	
1396 	 -12 	 -1420 	-595.385 	 -55.16 	 -10.57 	
1500 	 -20 	 -1358 	-644.105 	 -90.475 	 5.32 	
1542 	 -59 	 -1189 	-686.42 	 -120.89 	 21.56 	
1459 	 -238 	 -1112 	-716.485 	 -146.09 	 38.955 	
1452 	 -856 	 -1067 	-733.81 	 -168.84 	 58.695 	
1546 	 -1345 	 -743 	-738.535 	 -190.925 	 78.19 	
1636 	 -1719 	 -562 	-727.65 	 -213.5 	 95.375 	
1658 	 -1753 	 -503 	-704.935 	 -233.03 	 108.885 	
1715 	 -1852 	 -336 	-673.4 	 -235.305 	 121.87 	
1904 	 -2114 	 -85 	-631.89 	 -215.705 	 130.06 	
2025 	 -2208 	 15 	-579.775 	 -174.055 	 124.145 	
1855 	 -1964 	 228 	-524.44 	 -119.98 	 107.345 	
1678 	 -1771 	 752 	-468.335 	 -72.87 	 87.325 	
1335 	 -1564 	 1460 	-405.475 	 -37.625 	 64.33 	
1153 	 -1166 	 1731 	-337.715 	 -22.75 	 40.565 	
1112 	 -726 	 1927 	-272.37 	 -19.705 	 15.435 	
1244 	 -324 	 2054 	-210.21 	 -20.825 	 -10.465 	
1359 	 127 	 2118 	-150.99 	 -16.345 	 -35.35 	
1471 	 505 	 2144 	-97.195 	 -3.5 	 -58.03 	
1464 	 831 	 2245 	-48.51 	 14.21 	 -79.625 	
1287 	 1144 	 2304 	-4.165 	 29.54 	 -99.82 	
1063 	 1446 	 2255 	35.035 	 38.325 	 -115.92 	
988 	 1625 	 2145 	68.075 	 40.18 	 -126.595 	
1005 	 1764 	 1958 	95.76 	 38.15 	 -135.1 	
943 	 1898 	 1758 	117.74 	 35.455 	 -142.31 	
900 	 1922 	 1633 	134.995 	 32.445 	 -146.3 	
880 	 1905 	 1481 	150.36 	 29.26 	 -148.085 	
861 	 1865 	 1256 	162.61 	 26.32 	 -148.225 	
844 	 1766 	 1080 	171.15 	 23.695 	 -147.07 	
814 	 1634 	 991 	177.835 	 21.77 	 -145.18 	
791 	 1521 	 877 	184.695 	 20.86 	 -142.1 	
822 	 1404 	 711 	190.715 	 21.28 	 -137.83 	
879 	 1255 	 582 	195.09 	 22.995 	 -133.735 	
884 	 1113 	 501 	198.765 	 26.145 	 -130.48 	
841 	 1000 	 429 	202.685 	 30.38 	 -127.015 	
815 	 885 	 343 	206.395 	 35.035 	 -122.64 	
819 	 745 	 270 	209.51 	 40.145 	 -118.37 	
798 	 632 	 210 	212.135 	 45.01 	 -115.08 	
742 	 558 	 181 	214.445 	 49.315 	 -112 	
713 	 492 	 151 	216.72 	 52.43 	 -108.255 	
724 	 434 	 105 	218.61 	 54.075 	 -104.755 	
716 	 397 	 76 	219.45 	 55.055 	 -102.48 	
683 	 380 	 43 	219.905 	 56 	 -100.205 	
681 	 374 	 -4 	220.01 	 57.365 	 -97.055 	
712 	 369 	 -46 	219.52 	 59.85 	 -94.01 	
716 	 380 	 -73 	218.47 	 63.42 	 -91.875 	
696 	 411 	 -86 	217.245 	 67.305 	 -89.53 	
691 	 429 	 -108 	215.775 	 70.84 	 -86.205 	
709 	 412 	 -141 	213.92 	 73.64 	 -82.95 	
717 	 387 	 -176 	211.75 	 75.565 	 -80.22 	
704 	 377 	 -205 	209.195 	 76.545 	 -77.35 	
689 	 361 	 -214 	206.71 	 76.65 	 -74.025 	
717 	 323 	 -248 	204.54 	 76.23 	 -70.35 	
711 	 298 	 -275 	202.195 	 76.055 	 -67.55 	
684 	 280 	 -288 	199.64 	 75.67 	 -64.61 	
690 	 268 	 -327 	197.47 	 74.935 	 -61.565 	
684 	 259 	 -373 	195.475 	 74.165 	 -58.31 	
698 	 237 	 -359 	192.99 	 73.78 	 -55.51 	
686 	 240 	 -362 	190.295 	 73.745 	 -53.55 	
654 	 255 	 -362 	188.265 	 74.13 	 -51.1 	
659 	 276 	 -388 	186.095 	 74.55 	 -48.09 	
672 	 289 	 -394 	183.225 	 75.075 	 -45.92 	
665 	 315 	 -375 	180.53 	 75.6 	 -43.96 	
651 	 357 	 -364 	178.29 	 75.95 	 -41.755 	
650 	 392 	 -376 	175.84 	 75.915 	 -39.165 	
652 	 403 	 -376 	172.76 	 75.565 	 -36.82 	
646 	 410 	 -370 	169.785 	 74.97 	 -34.72 	
637 	 427 	 -377 	167.23 	 73.885 	 -32.55 	
637 	 446 	 -381 	164.395 	 72.835 	 -30.17 	
632 	 454 	 -391 	161.35 	 71.75 	 -28.035 	
617 	 461 	 -398 	158.655 	 71.015 	 -26.075 	
607 	 465 	 -420 	156.065 	 70.35 	 -24.08 	
597 	 457 	 -436 	153.265 	 69.65 	 -22.225 	
585 	 451 	 -448 	150.745 	 68.915 	 -20.615 	
566 	 441 	 -450 	148.4 	 68.075 	 -19.075 	
568 	 426 	 -454 	145.565 	 67.095 	 -17.255 	
572 	 410 	 -446 	143.08 	 66.15 	 -15.645 	
563 	 420 	 -461 	141.05 	 65.52 	 -14.455 	
542 	 430 	 -482 	138.495 	 65.065 	 -13.23 	
547 	 426 	 -470 	135.695 	 64.61 	 -11.55 	
556 	 421 	 -460 	133.525 	 63.98 	 -10.29 	
549 	 421 	 -466 	131.04 	 63.805 	 -9.24 	
532 	 433 	 -472 	127.96 	 63.98 	 -7.735 	
548 	 431 	 -467 	125.37 	 64.26 	 -5.985 	
550 	 433 	 -473 	122.78 	 65.065 	 -4.76 	
528 	 439 	 -471 	119.98 	 66.325 	 -3.675 	
544 	 442 	 -455 	116.865 	 67.795 	 -2.065 	
514 	 427 	 -422 	113.505 	 70.35 	 -0.84 	
508 	 400 	 -406 	109.795 	 73.15 	 0.035 	
483 	 342 	 -399 	105.455 	 76.615 	 0.875 	
425 	 274 	 -384 	100.38 	 80.395 	 1.05 	
336 	 231 	 -380 	94.675 	 83.055 	 -0.98 	
202 	 170 	 -353 	87.01 	 83.545 	 -2.695 	
20 	 64 	 -323 	76.405 	 79.24 	 -5.18 	
-195 	 -70 	 -460 	64.645 	 67.06 	 -8.505 	
-400 	 -40 	 -771 	51.625 	 47.11 	 -10.99 	
-331 	 12 	 -1100 	30.66 	 19.53 	 -11.27 	
-66 	 85 	 -1411 	2.38 	 -8.68 	 -7 	
457 	 182 	 -1872 	-29.4 	 -27.16 	 1.75 	
995 	 390 	 -2196 	-67.62 	 -25.9 	 11.725 	
1409 	 394 	 -2310 	-113.61 	 -9.205 	 20.51 	
1238 	 370 	 -2343 	-164.395 	 12.495 	 25.55 	
638 	 406 	 -2274 	-218.89 	 20.23 	 33.915 	
165 	 412 	 -2228 	-281.4 	 0.875 	 50.015 	
183 	 320 	 -2193 	-351.75 	 -42.21 	 71.61 	
559 	 176 	 -2245 	-420.035 	 -91.245 	 94.64 	
919 	 177 	 -2412 	-484.68 	 -131.39 	 115.71 	
938 	 188 	 -2378 	-552.37 	 -158.935 	 136.64 	
731 	 0 	 -2033 	-616.735 	 -179.795 	 162.33 	
591 	 -93 	 -1744 	-671.86 	 -203.7 	 192.29 	
561 	 -55 	 -1347 	-723.765 	 -234.115 	 222.285 	
517 	 -76 	 -967 	-767.13 	 -265.195 	 249.97 	
476 	 -146 	 -910 	-795.27 	 -288.47 	 278.005 	
725 	 -546 	 -1182 	-813.925 	 -298.515 	 306.915 	
1142 	 -1328 	 -1081 	-822.36 	 -289.345 	 330.47 	
1579 	 -1948 	 -915 	-814.205 	 -263.2 	 346.57 	
1897 	 -2312 	 -868 	-790.51 	 -219.555 	 354.445 	
2173 	 -2580 	 -648 	-755.79 	 -155.505 	 353.71 	
2364 	 -2907 	 -357 	-711.235 	 -79.765 	 342.58 	
2355 	 -3004 	 -38 	-657.125 	 -2.8 	 316.295 	
2021 	 -2981 	 305 	-598.325 	 57.785 	 275.905 	
1688 	 -2809 	 893 	-537.32 	 91.63 	 234.465 	
1518 	 -2597 	 1510 	-467.425 	 93.45 	 192.71 	
1402 	 -2075 	 1831 	-392.665 	 68.88 	 152.53 	
1506 	 -1607 	 2184 	-321.265 	 29.155 	 113.295 	
1747 	 -1114 	 2324 	-251.44 	 -10.08 	 74.97 	
1985 	 -559 	 2301 	-185.92 	 -31.605 	 39.305 	
2243 	 -96 	 2228 	-127.05 	 -27.79 	 6.09 	
2341 	 240 	 2179 	-74.375 	 -2.835 	 -27.23 	
2132 	 660 	 2118 	-29.12 	 30.59 	 -58.975 	
1839 	 1002 	 2180 	7.035 	 57.19 	 -83.755 	
1662 	 1205 	 2249 	37.17 	 67.34 	 -102.69 	
1453 	 1463 	 2135 	62.755 	 61.915 	 -119.7 	
1270 	 1716 	 1903 	80.675 	 44.73 	 -132.51 	
1197 	 1807 	 1769 	91.77 	 23.45 	 -140.42 	
1202 	 1831 	 1616 	100.73 	 4.97 	 -146.545 	
1195 	 1850 	 1315 	107.975 	 -5.53 	 -151.725 	
1169 	 1805 	 1054 	111.37 	 -6.545 	 -154.91 	
1125 	 1678 	 945 	112.945 	 -0.105 	 -156.24 	
1067 	 1543 	 851 	115.745 	 9.975 	 -155.82 	
983 	 1433 	 712 	118.65 	 19.425 	 -154.315 	
883 	 1299 	 639 	120.225 	 25.725 	 -151.585 	
795 	 1141 	 636 	121.905 	 28 	 -147.7 	
725 	 1023 	 576 	125.02 	 27.615 	 -143.15 	
668 	 927 	 465 	127.96 	 27.265 	 -138.075 	
646 	 817 	 392 	129.815 	 29.05 	 -132.685 	
636 	 732 	 351 	132.02 	 34.405 	 -127.435 	
621 	 692 	 293 	134.68 	 43.085 	 -122.185 	
594 	 654 	 234 	136.675 	 53.305 	 -116.76 	
545 	 605 	 230 	138.18 	 63.175 	 -111.195 	
482 	 576 	 240 	139.16 	 70.21 	 -105.14 	
429 	 569 	 234 	139.86 	 72.975 	 -98.98 	
397 	 557 	 224 	139.79 	 71.505 	 -92.4 	
410 	 551 	 213 	138.845 	 66.115 	 -85.75 	
425 	 543 	 202 	137.41 	 58.73 	 -79.555 	
430 	 555 	 162 	135.45 	 50.82 	 -73.185 	
456 	 555 	 121 	132.965 	 43.26 	 -66.395 	
492 	 547 	 89 	130.025 	 36.82 	 -59.395 	
525 	 529 	 73 	126.525 	 31.29 	 -52.71 	
543 	 525 	 50 	122.815 	 26.145 	 -46.305 	
550 	 518 	 11 	118.79 	 20.86 	 -40.11 	
549 	 509 	 -15 	114.24 	 15.785 	 -34.195 	
545 	 487 	 -39 	109.48 	 10.99 	 -28.35 	
548 	 475 	 -78 	104.615 	 7.595 	 -22.82 	
562 	 494 	 -108 	99.26 	 6.79 	 -17.885 	
596 	 531 	 -141 	93.87 	 8.575 	 -13.16 	
635 	 568 	 -183 	88.585 	 13.23 	 -8.925 	
654 	 597 	 -222 	82.88 	 20.265 	 -5.215 	
651 	 609 	 -242 	76.79 	 28.315 	 -1.75 	
648 	 620 	 -245 	70.805 	 36.085 	 1.68 	
654 	 628 	 -244 	64.68 	 42.98 	 5.11 	
661 	 631 	 -233 	58.485 	 47.88 	 8.015 	
654 	 642 	 -208 	52.115 	 50.61 	 10.675 	
653 	 654 	 -181 	45.99 	 50.855 	 13.44 	
660 	 662 	 -140 	39.725 	 49.21 	 16.03 	
657 	 665 	 -112 	33.145 	 45.29 	 18.2 	
648 	 653 	 -88 	26.67 	 39.375 	 20.3 	
643 	 646 	 -87 	20.475 	 31.815 	 22.33 	
652 	 639 	 -96 	14.49 	 22.995 	 24.08 	
656 	 629 	 -94 	8.435 	 13.615 	 25.235 	
669 	 621 	 -87 	2.485 	 4.69 	 26.39 	
706 	 623 	 -103 	-2.905 	 -3.08 	 27.44 	
749 	 637 	 -128 	-8.015 	 -9.205 	 28.175 	
776 	 652 	 -131 	-13.475 	 -12.775 	 28.455 	
788 	 656 	 -128 	-18.305 	 -14.105 	 28.665 	
815 	 652 	 -149 	-22.505 	 -13.195 	 28.98 	
838 	 635 	 -164 	-26.88 	 -10.5 	 29.05 	
855 	 615 	 -157 	-31.22 	 -6.405 	 28.805 	
855 	 606 	 -147 	-34.475 	 -1.575 	 28.49 	
865 	 598 	 -145 	-37.555 	 3.43 	 28.14 	
874 	 586 	 -126 	-40.495 	 7.875 	 27.72 	
872 	 571 	 -96 	-42.805 	 11.55 	 27.16 	
862 	 561 	 -76 	-44.45 	 14 	 26.67 	
851 	 543 	 -67 	-45.99 	 14.77 	 26.18 	
845 	 512 	 -50 	-47.005 	 13.615 	 25.69 	
839 	 479 	 -31 	-47.53 	 11.095 	 25.095 	
828 	 453 	 -12 	-47.495 	 7.245 	 24.43 	
832 	 434 	 5 	-47.285 	 2.695 	 23.87 	
835 	 420 	 21 	-46.795 	 -2.03 	 23.205 	
842 	 413 	 16 	-45.815 	 -6.335 	 22.4 	
853 	 405 	 4 	-44.45 	 -9.87 	 21.63 	
871 	 396 	 -2 	-43.085 	 -12.075 	 20.79 	
890 	 387 	 -6 	-41.195 	 -12.845 	 19.845 	
901 	 382 	 -9 	-39.095 	 -12.18 	 18.865 	
909 	 387 	 -12 	-36.855 	 -10.5 	 17.92 	
915 	 390 	 -7 	-34.545 	 -8.33 	 17.045 	
914 	 394 	 7 	-32.2 	 -5.88 	 15.925 	
907 	 406 	 20 	-29.575 	 -3.78 	 14.84 	
897 	 417 	 37 	-27.125 	 -1.96 	 13.86 	
886 	 432 	 51 	-24.71 	 -1.155 	 12.81 	
873 	 447 	 63 	-22.33 	 -1.26 	 11.83 	
863 	 465 	 81 	-20.125 	 -2.52 	 10.815 	
856 	 485 	 100 	-18.165 	 -4.76 	 9.8 	
843 	 508 	 117 	-16.205 	 -7.875 	 8.785 	
834 	 528 	 128 	-14.665 	 -11.69 	 7.805 	
827 	 545 	 134 	-13.23 	 -16.03 	 6.825 	
822 	 563 	 133 	-12.005 	 -20.37 	 5.81 	
816 	 584 	 131 	-11.13 	 -24.255 	 4.795 	
815 	 600 	 120 	-10.535 	 -27.335 	 3.815 	
824 	 617 	 104 	-9.905 	 -29.19 	 2.835 	
839 	 634 	 88 	-9.66 	 -29.225 	 1.89 	
849 	 650 	 82 	-9.555 	 -27.58 	 0.7 	
851 	 666 	 76 	-9.625 	 -24.36 	 -0.35 	
854 	 672 	 73 	-9.905 	 -20.055 	 -1.295 	
854 	 679 	 74 	-10.185 	 -15.295 	 -2.065 	
855 	 687 	 81 	-10.71 	 -10.57 	 -2.975 	
849 	 692 	 90 	-11.235 	 -6.44 	 -3.815 	
842 	 693 	 103 	-11.795 	 -3.325 	 -4.41 	
835 	 694 	 116 	-12.355 	 -1.505 	 -4.97 	
826 	 697 	 119 	-12.81 	 -1.225 	 -5.425 	
817 	 694 	 128 	-13.405 	 -2.1 	 -5.775 	
811 	 689 	 139 	-13.965 	 -3.815 	 -6.055 	
808 	 683 	 141 	-14.28 	 -6.23 	 -6.265 	
814 	 676 	 136 	-14.63 	 -8.61 	 -6.475 	
812 	 665 	 132 	-15.155 	 -10.605 	 -6.685 	
