STEVAL-MKI197V1 (LSM6DSOX)

A_X [mg] 	 A_Y [mg] 	 A_Z [mg] 	G_X [dps] 	 G_Y [dps] 	 G_Z [dps] 	
-20 	 650 	 -772 	4.69 	 -3.78 	 1.435 	
-19 	 647 	 -770 	5.18 	 -3.815 	 1.4 	
-21 	 647 	 -768 	5.74 	 -4.025 	 1.295 	
-20 	 647 	 -772 	6.44 	 -4.235 	 1.155 	
-20 	 648 	 -774 	6.93 	 -4.41 	 1.05 	
-21 	 647 	 -775 	7.56 	 -4.795 	 0.945 	
-24 	 651 	 -776 	8.19 	 -5.11 	 0.84 	
-23 	 650 	 -780 	8.89 	 -5.53 	 0.77 	
-20 	 649 	 -782 	9.45 	 -5.74 	 0.735 	
-18 	 645 	 -778 	9.975 	 -5.845 	 0.63 	
-19 	 650 	 -779 	10.64 	 -5.88 	 0.525 	
-21 	 651 	 -781 	11.375 	 -5.95 	 0.42 	
-19 	 653 	 -781 	11.83 	 -5.67 	 0.315 	
-17 	 652 	 -783 	12.46 	 -5.39 	 0.315 	
-14 	 649 	 -784 	12.985 	 -4.935 	 0.245 	
-16 	 651 	 -781 	13.755 	 -4.585 	 0.175 	
-18 	 652 	 -780 	14.35 	 -4.305 	 0.105 	
-15 	 648 	 -781 	14.91 	 -4.095 	 0.07 	
-16 	 649 	 -783 	15.54 	 -4.095 	 0.07 	
-21 	 650 	 -781 	16.205 	 -4.375 	 -0.035 	
-24 	 649 	 -780 	16.94 	 -4.585 	 -0.035 	
-20 	 649 	 -780 	17.43 	 -4.69 	 -0.07 	
-17 	 651 	 -783 	18.095 	 -4.725 	 -0.14 	
-16 	 650 	 -783 	18.725 	 -4.62 	 -0.175 	
-10 	 649 	 -785 	19.355 	 -4.095 	 -0.21 	
-5 	 648 	 -792 	20.055 	 -3.36 	 -0.21 	
-2 	 645 	 -797 	20.58 	 -2.485 	 -0.21 	
0 	 639 	 -801 	21.105 	 -1.435 	 -0.245 	
2 	 638 	 -806 	21.945 	 -0.35 	 -0.21 	
7 	 635 	 -809 	22.575 	 0.875 	 -0.14 	
8 	 635 	 -807 	23.205 	 1.96 	 -0.105 	
5 	 633 	 -806 	23.87 	 2.975 	 -0.07 	
4 	 632 	 -807 	24.64 	 3.71 	 -0.035 	
5 	 630 	 -808 	25.305 	 4.235 	 0.105 	
7 	 626 	 -806 	25.935 	 4.48 	 0.175 	
5 	 624 	 -807 	26.565 	 4.515 	 0.245 	
5 	 622 	 -808 	27.265 	 4.27 	 0.28 	
4 	 622 	 -810 	27.895 	 3.92 	 0.385 	
7 	 621 	 -808 	28.49 	 3.675 	 0.455 	
10 	 619 	 -810 	29.05 	 3.535 	 0.525 	
14 	 616 	 -812 	29.785 	 3.29 	 0.63 	
15 	 615 	 -816 	30.485 	 3.08 	 0.665 	
16 	 617 	 -815 	31.08 	 3.185 	 0.735 	
18 	 619 	 -813 	31.815 	 3.115 	 0.84 	
20 	 620 	 -816 	32.55 	 3.15 	 0.945 	
22 	 620 	 -816 	33.355 	 3.255 	 1.015 	
26 	 616 	 -819 	33.985 	 3.325 	 1.26 	
30 	 610 	 -813 	34.72 	 3.465 	 1.47 	
31 	 611 	 -811 	35.7 	 3.605 	 1.54 	
30 	 611 	 -814 	36.68 	 3.745 	 1.75 	
31 	 609 	 -812 	37.625 	 3.815 	 2.065 	
36 	 600 	 -809 	38.535 	 3.99 	 2.38 	
39 	 593 	 -810 	39.725 	 4.06 	 2.625 	
40 	 586 	 -816 	40.845 	 4.025 	 3.01 	
39 	 579 	 -813 	42 	 3.955 	 3.36 	
40 	 577 	 -811 	43.295 	 3.815 	 3.815 	
44 	 573 	 -814 	44.695 	 3.5 	 4.2 	
42 	 570 	 -812 	46.06 	 3.29 	 4.69 	
37 	 567 	 -805 	47.53 	 3.15 	 5.11 	
31 	 569 	 -800 	48.965 	 2.905 	 5.53 	
30 	 566 	 -801 	50.47 	 2.695 	 5.95 	
29 	 556 	 -803 	51.905 	 2.52 	 6.37 	
30 	 544 	 -803 	53.375 	 2.52 	 6.79 	
33 	 534 	 -807 	55.16 	 2.345 	 7.245 	
34 	 528 	 -813 	56.735 	 2.485 	 7.63 	
32 	 520 	 -821 	58.45 	 2.59 	 8.015 	
29 	 509 	 -823 	60.235 	 3.01 	 8.4 	
30 	 496 	 -826 	61.985 	 3.815 	 8.82 	
30 	 473 	 -822 	63.805 	 4.935 	 9.1 	
17 	 431 	 -804 	65.485 	 6.3 	 9.24 	
-20 	 355 	 -765 	66.92 	 7.245 	 9.1 	
-88 	 224 	 -732 	68.11 	 7.14 	 8.855 	
-184 	 51 	 -743 	69.44 	 4.725 	 8.05 	
-321 	 -195 	 -790 	70.175 	 -0.595 	 6.195 	
-542 	 -554 	 -814 	69.685 	 -9.24 	 2.59 	
-860 	 -1169 	 -882 	68.075 	 -21.63 	 -2.94 	
-1099 	 -2006 	 -1305 	65.765 	 -38.01 	 -9.24 	
-1136 	 -3136 	 -1893 	60.375 	 -60.235 	 -17.185 	
-992 	 -3788 	 -2755 	52.045 	 -85.785 	 -27.79 	
-677 	 -3714 	 -3600 	37.31 	 -110.74 	 -37.31 	
-346 	 -3253 	 -4023 	11.515 	 -121.38 	 -44.03 	
199 	 -2970 	 -4169 	-27.3 	 -120.68 	 -48.79 	
521 	 -2282 	 -4246 	-75.705 	 -104.51 	 -61.18 	
65 	 -1698 	 -4097 	-134.82 	 -80.78 	 -80.71 	
-613 	 -1041 	 -3997 	-203.63 	 -65.38 	 -93.555 	
-607 	 -556 	 -4286 	-285.04 	 -62.545 	 -94.43 	
-42 	 -237 	 -4371 	-378.245 	 -60.375 	 -93.73 	
566 	 150 	 -4144 	-475.79 	 -54.985 	 -97.3 	
750 	 663 	 -3539 	-573.65 	 -52.745 	 -102.515 	
484 	 1175 	 -2622 	-669.165 	 -67.445 	 -103.285 	
100 	 1716 	 -1647 	-757.4 	 -102.76 	 -95.795 	
-29 	 2115 	 -1046 	-836.675 	 -153.44 	 -79.45 	
170 	 2236 	 -795 	-907.305 	 -205.66 	 -56.035 	
617 	 1931 	 -537 	-966 	 -244.195 	 -26.635 	
1087 	 1168 	 134 	-1003.7 	 -262.22 	 7.42 	
1307 	 194 	 1048 	-1010.03 	 -267.295 	 42.49 	
1504 	 -718 	 1619 	-983.885 	 -264.6 	 80.815 	
1403 	 -1372 	 2090 	-942.27 	 -256.305 	 111.475 	
1413 	 -1799 	 2752 	-886.935 	 -246.785 	 136.36 	
1090 	 -2201 	 3799 	-806.085 	 -225.365 	 150.885 	
1454 	 -2302 	 3938 	-703.01 	 -207.48 	 170.625 	
1603 	 -2184 	 3834 	-591.5 	 -176.365 	 173.18 	
1081 	 -2141 	 4427 	-475.79 	 -154.595 	 156.625 	
340 	 -1603 	 5019 	-355.005 	 -158.375 	 142.345 	
200 	 -1177 	 5421 	-230.265 	 -182.805 	 135.065 	
525 	 -849 	 5051 	-104.44 	 -208.6 	 121.135 	
849 	 -525 	 4265 	7.735 	 -203 	 95.76 	
1192 	 -157 	 3916 	101.325 	 -161.385 	 64.12 	
1151 	 185 	 3809 	188.405 	 -93.24 	 26.6 	
526 	 688 	 3317 	266.84 	 -22.225 	 -9.66 	
-145 	 988 	 3003 	330.365 	 30.87 	 -37.415 	
-238 	 1228 	 2504 	380.765 	 53.76 	 -56.77 	
-240 	 1347 	 2028 	420.945 	 60.725 	 -76.475 	
-285 	 1439 	 1405 	450.905 	 58.31 	 -96.88 	
-489 	 1441 	 855 	469.14 	 53.095 	 -115.01 	
-600 	 1294 	 434 	477.505 	 46.725 	 -128.31 	
-597 	 1184 	 85 	480.27 	 41.37 	 -139.65 	
-519 	 1178 	 -250 	479.815 	 38.64 	 -149.52 	
-397 	 1181 	 -562 	475.3 	 38.43 	 -156.835 	
-315 	 1142 	 -736 	467.075 	 41.09 	 -160.93 	
-258 	 1067 	 -846 	457.17 	 44.975 	 -162.12 	
-182 	 929 	 -1028 	446.39 	 48.86 	 -160.545 	
-308 	 947 	 -1175 	431.69 	 52.955 	 -157.815 	
-311 	 812 	 -1233 	412.86 	 56.63 	 -151.06 	
-279 	 786 	 -1224 	395.15 	 61.425 	 -144.13 	
-272 	 870 	 -1339 	379.26 	 69.545 	 -135.94 	
-186 	 872 	 -1485 	361.445 	 79.135 	 -124.81 	
-135 	 840 	 -1460 	342.3 	 89.39 	 -113.295 	
-173 	 802 	 -1418 	324.625 	 97.37 	 -101.815 	
-254 	 800 	 -1426 	307.125 	 100.065 	 -89.6 	
-324 	 766 	 -1376 	288.715 	 96.39 	 -76.23 	
-327 	 671 	 -1286 	271.32 	 86.765 	 -62.09 	
-378 	 592 	 -1241 	255.36 	 73.605 	 -50.295 	
-454 	 651 	 -1335 	239.645 	 57.4 	 -39.06 	
-415 	 564 	 -1277 	222.74 	 42.14 	 -26.565 	
-354 	 505 	 -1166 	207.34 	 28.245 	 -16.695 	
-393 	 541 	 -1153 	194.565 	 17.955 	 -8.68 	
-414 	 544 	 -1207 	181.51 	 11.13 	 0.35 	
-372 	 494 	 -1229 	167.405 	 7.35 	 9.38 	
-344 	 431 	 -1196 	154.49 	 7.14 	 16.45 	
-353 	 442 	 -1187 	142.905 	 9.66 	 22.61 	
-349 	 507 	 -1174 	131.635 	 14.28 	 28.63 	
-329 	 545 	 -1117 	120.75 	 20.72 	 34.3 	
-312 	 559 	 -1076 	111.055 	 27.405 	 39.235 	
-317 	 574 	 -1069 	101.64 	 33.075 	 43.645 	
-329 	 577 	 -1049 	92.435 	 37.1 	 47.845 	
-328 	 559 	 -1004 	83.965 	 38.78 	 51.8 	
-323 	 547 	 -975 	76.545 	 38.22 	 55.125 	
-321 	 542 	 -959 	69.79 	 35.945 	 57.925 	
-319 	 547 	 -927 	63.49 	 32.655 	 60.41 	
-295 	 557 	 -898 	58.135 	 28.63 	 62.65 	
-282 	 562 	 -866 	53.34 	 25.06 	 64.33 	
-251 	 565 	 -859 	48.965 	 22.085 	 65.625 	
-225 	 557 	 -849 	45.22 	 20.195 	 66.885 	
-198 	 540 	 -849 	42.35 	 18.9 	 67.795 	
-176 	 523 	 -852 	39.725 	 18.305 	 68.355 	
-163 	 506 	 -838 	37.52 	 17.955 	 68.74 	
-155 	 493 	 -817 	36.05 	 17.71 	 69.02 	
-141 	 483 	 -815 	35.21 	 17.255 	 69.16 	
-138 	 472 	 -809 	34.545 	 16.835 	 68.985 	
-132 	 457 	 -803 	34.265 	 16.1 	 68.53 	
-152 	 450 	 -790 	34.545 	 15.54 	 67.83 	
-152 	 442 	 -790 	35.105 	 15.05 	 67.305 	
-142 	 422 	 -804 	35.91 	 15.155 	 66.325 	
-151 	 392 	 -824 	36.96 	 15.785 	 64.82 	
-172 	 347 	 -850 	38.36 	 16.695 	 63.385 	
-172 	 282 	 -904 	40.425 	 17.71 	 62.125 	
-216 	 139 	 -937 	42.35 	 18.9 	 60.13 	
-297 	 -69 	 -964 	43.995 	 19.39 	 57.19 	
-409 	 -271 	 -973 	45.5 	 18.76 	 53.9 	
-548 	 -515 	 -1045 	46.83 	 17.045 	 49.945 	
-742 	 -934 	 -1228 	45.955 	 14.42 	 43.96 	
-1144 	 -1611 	 -1353 	38.85 	 11.025 	 34.51 	
-1335 	 -2433 	 -1682 	25.2 	 -0.875 	 24.57 	
-1158 	 -2938 	 -2606 	16.205 	 -23.205 	 15.82 	
-1163 	 -3051 	 -3613 	5.355 	 -48.65 	 -0.035 	
-1380 	 -2907 	 -4225 	-30.66 	 -74.935 	 -15.33 	
-977 	 -2572 	 -4440 	-80.92 	 -97.3 	 -18.13 	
-439 	 -2068 	 -4412 	-132.72 	 -104.125 	 -23.87 	
-365 	 -1491 	 -4537 	-197.96 	 -103.18 	 -40.495 	
-886 	 -939 	 -4451 	-276.815 	 -92.785 	 -56.77 	
-1207 	 -315 	 -4573 	-362.53 	 -82.565 	 -57.26 	
-734 	 108 	 -4705 	-461.405 	 -73.115 	 -46.515 	
-132 	 354 	 -4287 	-568.575 	 -61.915 	 -39.795 	
25 	 721 	 -3494 	-672.21 	 -61.425 	 -36.05 	
-165 	 1156 	 -2516 	-770.945 	 -84.875 	 -26.46 	
-429 	 1605 	 -1315 	-861.035 	 -129.78 	 -6.825 	
-481 	 1845 	 -925 	-935.69 	 -186.62 	 22.82 	
-140 	 1757 	 -1206 	-1001.77 	 -234.745 	 60.515 	
597 	 985 	 -851 	-1061.45 	 -256.9 	 102.655 	
1330 	 -167 	 395 	-1088.22 	 -241.325 	 143.64 	
1993 	 -1250 	 1307 	-1068.34 	 -202.51 	 178.885 	
2293 	 -1891 	 1799 	-1019.69 	 -148.785 	 205.905 	
2243 	 -2473 	 2408 	-959.84 	 -101.85 	 221.69 	
1713 	 -3112 	 3552 	-879.375 	 -74.305 	 225.645 	
1145 	 -3256 	 4301 	-770.665 	 -83.44 	 221.585 	
1250 	 -2767 	 4116 	-648.48 	 -108.57 	 221.9 	
1905 	 -2500 	 4814 	-530.425 	 -134.33 	 220.64 	
2351 	 -2525 	 5665 	-391.265 	 -156.275 	 198.695 	
1693 	 -1641 	 5455 	-241.92 	 -169.89 	 160.51 	
1114 	 -1263 	 5442 	-108.57 	 -173.565 	 134.75 	
1593 	 -1045 	 5245 	15.89 	 -168.7 	 110.285 	
2064 	 -596 	 4733 	130.515 	 -138.81 	 69.02 	
1893 	 -102 	 4260 	226.59 	 -85.295 	 16.38 	
1270 	 384 	 4011 	309.085 	 -17.885 	 -31.5 	
764 	 847 	 3525 	382.165 	 45.395 	 -66.43 	
549 	 1118 	 2788 	439.495 	 90.79 	 -95.41 	
294 	 1128 	 2321 	478.345 	 114.38 	 -125.51 	
-104 	 1273 	 1756 	507.01 	 117.11 	 -153.545 	
-620 	 1388 	 1146 	526.12 	 104.86 	 -173.985 	
-673 	 1430 	 613 	532.735 	 81.34 	 -186.375 	
-520 	 1331 	 334 	532.875 	 59.395 	 -198.17 	
-394 	 1350 	 -78 	530.355 	 45.955 	 -210.56 	
-248 	 1365 	 -517 	521.5 	 46.305 	 -217.56 	
-64 	 1323 	 -834 	506.45 	 59.255 	 -219.065 	
21 	 1243 	 -930 	490.245 	 81.69 	 -218.225 	
-21 	 1155 	 -1040 	473.725 	 106.4 	 -213.745 	
-152 	 1204 	 -1187 	455.875 	 127.26 	 -204.505 	
-230 	 1148 	 -1213 	436.415 	 140.735 	 -191.45 	
-255 	 1038 	 -1140 	416.43 	 144.865 	 -176.61 	
-319 	 945 	 -1161 	397.425 	 141.295 	 -161.595 	
-428 	 933 	 -1237 	377.51 	 133.28 	 -147.315 	
-517 	 931 	 -1189 	357.245 	 123.27 	 -131.04 	
-441 	 866 	 -1122 	338.45 	 112.735 	 -112.875 	
-412 	 866 	 -1150 	320.915 	 102.62 	 -97.125 	
-329 	 838 	 -1253 	302.855 	 92.085 	 -81.83 	
-314 	 730 	 -1170 	284.83 	 80.57 	 -68.425 	
-417 	 693 	 -1085 	269.43 	 67.83 	 -56.49 	
-453 	 704 	 -1157 	255.71 	 52.605 	 -43.05 	
-380 	 658 	 -1169 	240.275 	 36.05 	 -29.75 	
-361 	 587 	 -1042 	225.75 	 20.195 	 -19.74 	
-438 	 602 	 -1002 	214.27 	 5.705 	 -11.235 	
-464 	 639 	 -1062 	202.86 	 -6.405 	 -1.68 	
-418 	 609 	 -1088 	190.435 	 -16.765 	 6.475 	
-430 	 520 	 -1048 	179.095 	 -24.22 	 12.18 	
-463 	 452 	 -1052 	169.715 	 -29.96 	 17.29 	
-450 	 449 	 -1102 	160.51 	 -33.495 	 22.295 	
-424 	 455 	 -1094 	150.99 	 -33.775 	 26.285 	
-417 	 455 	 -1052 	142.87 	 -30.73 	 29.295 	
-418 	 454 	 -1054 	136.08 	 -24.78 	 32.095 	
-470 	 445 	 -1043 	130.585 	 -19.11 	 34.335 	
-399 	 445 	 -1153 	125.58 	 -14 	 35.945 	
-455 	 390 	 -1105 	114.975 	 -7.77 	 39.515 	
-279 	 353 	 -741 	108.045 	 -0.875 	 42.63 	
-195 	 448 	 -935 	108.255 	 8.225 	 42.105 	
-353 	 563 	 -1150 	103.845 	 17.815 	 42.105 	
-415 	 473 	 -958 	95.095 	 25.095 	 45.78 	
-310 	 350 	 -773 	91.91 	 28.805 	 48.93 	
-280 	 395 	 -880 	91.385 	 30.59 	 49.175 	
-354 	 461 	 -917 	85.96 	 30.38 	 49.63 	
-357 	 416 	 -731 	79.625 	 27.86 	 51.625 	
-317 	 394 	 -681 	78.785 	 23.275 	 53.41 	
-307 	 451 	 -826 	77.805 	 17.15 	 54.11 	
-320 	 462 	 -826 	72.765 	 10.29 	 54.81 	
-317 	 403 	 -690 	68.845 	 3.01 	 56.07 	
-291 	 393 	 -700 	68.285 	 -4.13 	 57.155 	
-259 	 432 	 -813 	66.535 	 -10.255 	 57.54 	
-250 	 438 	 -797 	62.44 	 -14.945 	 57.505 	
-241 	 404 	 -729 	59.955 	 -18.095 	 57.89 	
-205 	 410 	 -785 	59.535 	 -19.775 	 57.995 	
-181 	 419 	 -873 	57.785 	 -19.6 	 57.89 	
-155 	 389 	 -857 	54.74 	 -17.955 	 57.715 	
-148 	 356 	 -814 	53.62 	 -15.4 	 57.33 	
-134 	 352 	 -878 	53.655 	 -12.88 	 56.875 	
-145 	 348 	 -912 	52.57 	 -10.29 	 56.245 	
-157 	 312 	 -894 	51.31 	 -8.75 	 55.335 	
-182 	 306 	 -853 	51.52 	 -7.63 	 54.425 	
-170 	 312 	 -904 	51.835 	 -7.84 	 53.83 	
-224 	 282 	 -861 	51.8 	 -8.785 	 52.395 	
-196 	 287 	 -959 	54.18 	 -13.265 	 50.4 	
-341 	 279 	 -865 	53.515 	 -15.82 	 48.615 	
-276 	 183 	 -727 	51.24 	 -19.705 	 47.6 	
-183 	 178 	 -773 	53.62 	 -20.72 	 45.115 	
-294 	 208 	 -904 	55.72 	 -18.13 	 41.265 	
-443 	 69 	 -938 	52.78 	 -14.14 	 37.695 	
-594 	 -275 	 -875 	48.65 	 -10.71 	 33.635 	
-931 	 -731 	 -938 	45.92 	 -8.995 	 26.355 	
-1470 	 -1360 	 -1141 	38.57 	 -13.02 	 14.455 	
-2036 	 -2195 	 -1506 	21.91 	 -30.38 	 -1.225 	
-2261 	 -2835 	 -2367 	1.505 	 -68.145 	 -15.4 	
-1946 	 -3073 	 -3690 	-17.43 	 -117.635 	 -23.345 	
-1489 	 -3110 	 -4588 	-49.175 	 -151.585 	 -30.975 	
-828 	 -2926 	 -5134 	-100.66 	 -147.665 	 -40.25 	
-527 	 -2437 	 -5026 	-160.93 	 -92.575 	 -54.6 	
-872 	 -1880 	 -4785 	-226.24 	 -6.755 	 -72.625 	
-1546 	 -1398 	 -4646 	-300.685 	 77.07 	 -88.2 	
-1961 	 -1031 	 -4400 	-386.155 	 130.865 	 -93.59 	
-1466 	 -916 	 -4132 	-480.865 	 140.735 	 -90.055 	
-691 	 -678 	 -3850 	-577.325 	 121.065 	 -90.37 	
-329 	 -195 	 -3167 	-675.535 	 83.44 	 -93.1 	
-326 	 382 	 -2029 	-770.42 	 36.19 	 -87.745 	
-270 	 1068 	 -1128 	-849.8 	 -9.73 	 -69.16 	
219 	 1657 	 -865 	-918.33 	 -49.175 	 -40.285 	
968 	 1491 	 -682 	-982.135 	 -76.09 	 -8.68 	
1468 	 939 	 38 	-1031.91 	 -85.33 	 21.455 	
1773 	 370 	 1342 	-1053.85 	 -84.63 	 54.46 	
2132 	 -401 	 2456 	-1036.38 	 -81.865 	 91.77 	
2311 	 -1021 	 2867 	-988.4 	 -84.105 	 126.42 	
2183 	 -1686 	 3217 	-928.095 	 -98.595 	 152.915 	
1595 	 -2416 	 4374 	-851.55 	 -120.225 	 172.9 	
1270 	 -2557 	 4920 	-746.06 	 -158.375 	 188.265 	
1653 	 -2446 	 4793 	-622.475 	 -190.47 	 204.96 	
2288 	 -2121 	 4654 	-503.685 	 -207.165 	 209.475 	
2157 	 -1852 	 5596 	-383.775 	 -212.765 	 193.375 	
1524 	 -1442 	 6298 	-245.7 	 -227.465 	 168.7 	
1031 	 -782 	 5947 	-104.755 	 -244.58 	 145.18 	
1312 	 -411 	 5275 	16.835 	 -253.295 	 120.085 	
1864 	 -154 	 4807 	120.54 	 -236.355 	 82.46 	
1879 	 253 	 4228 	214.06 	 -185.71 	 30.555 	
1321 	 735 	 3553 	294.28 	 -111.335 	 -22.26 	
720 	 1072 	 2992 	358.015 	 -40.005 	 -65.66 	
315 	 1298 	 2441 	407.785 	 11.375 	 -101.885 	
-27 	 1408 	 1971 	446.25 	 42.315 	 -135.1 	
-290 	 1439 	 1395 	474.32 	 57.855 	 -164.43 	
-348 	 1476 	 694 	491.61 	 68.74 	 -187.215 	
-252 	 1369 	 223 	498.715 	 85.4 	 -204.89 	
-238 	 1314 	 -161 	500.115 	 108.99 	 -219.555 	
-334 	 1294 	 -456 	496.79 	 134.085 	 -227.29 	
-340 	 1198 	 -687 	487.725 	 152.425 	 -227.22 	
-321 	 1192 	 -754 	476.14 	 161.49 	 -223.23 	
-376 	 1159 	 -742 	463.19 	 161 	 -215.67 	
-464 	 1167 	 -809 	448.91 	 152.285 	 -204.785 	
-490 	 1139 	 -894 	432.88 	 138.25 	 -190.505 	
-470 	 1040 	 -980 	414.995 	 121.1 	 -174.65 	
-482 	 964 	 -1100 	395.675 	 103.425 	 -159.285 	
-498 	 868 	 -1143 	376.215 	 87.185 	 -142.87 	
-493 	 797 	 -1187 	357.14 	 73.185 	 -125.895 	
-383 	 717 	 -1258 	338.905 	 62.055 	 -109.515 	
-383 	 631 	 -1251 	321.44 	 55.545 	 -95.585 	
-498 	 564 	 -1281 	304.85 	 52.36 	 -81.795 	
-483 	 477 	 -1326 	288.33 	 51.485 	 -65.59 	
-339 	 410 	 -1330 	272.16 	 53.025 	 -51.625 	
-337 	 396 	 -1282 	257.39 	 57.75 	 -41.335 	
-388 	 477 	 -1239 	243.775 	 64.155 	 -30.66 	
-409 	 526 	 -1206 	230.58 	 69.825 	 -19.46 	
-388 	 539 	 -1209 	217.49 	 72.835 	 -8.365 	
-435 	 525 	 -1131 	204.05 	 72.695 	 0.665 	
-523 	 534 	 -1062 	191.345 	 67.795 	 8.435 	
-564 	 529 	 -1044 	179.515 	 58.31 	 16.66 	
-541 	 521 	 -1032 	167.755 	 45.465 	 24.29 	
-540 	 512 	 -972 	156.45 	 30.975 	 29.68 	
-564 	 516 	 -946 	146.125 	 16.66 	 33.985 	
-552 	 523 	 -974 	136.5 	 3.29 	 38.43 	
-516 	 519 	 -992 	126.77 	 -8.015 	 42.21 	
-485 	 492 	 -989 	117.845 	 -16.975 	 44.975 	
-461 	 474 	 -986 	109.83 	 -23.415 	 47.04 	
-445 	 483 	 -995 	102.375 	 -27.16 	 48.685 	
-435 	 491 	 -983 	95.48 	 -28 	 50.12 	
-389 	 503 	 -1004 	89.355 	 -26.25 	 51.415 	
-368 	 495 	 -1006 	83.09 	 -21.595 	 52.22 	
-342 	 494 	 -967 	77.35 	 -14.525 	 53.06 	
-285 	 504 	 -976 	72.45 	 -6.055 	 53.725 	
-267 	 522 	 -974 	68.075 	 3.395 	 54.075 	
-270 	 528 	 -935 	63.63 	 12.775 	 54.53 	
-248 	 523 	 -901 	59.885 	 21.07 	 55.195 	
-232 	 525 	 -880 	56.84 	 27.965 	 55.685 	
-233 	 533 	 -857 	54.18 	 33.075 	 55.895 	
-230 	 539 	 -821 	51.59 	 36.365 	 56.315 	
-226 	 534 	 -778 	49.525 	 38.255 	 56.595 	
-207 	 525 	 -776 	48.02 	 38.43 	 56.735 	
-200 	 513 	 -771 	46.865 	 37.52 	 56.805 	
-194 	 495 	 -753 	46.06 	 35.49 	 56.735 	
-178 	 479 	 -745 	45.675 	 32.62 	 56.49 	
-175 	 470 	 -739 	45.78 	 29.33 	 56.21 	
-167 	 465 	 -727 	45.85 	 25.655 	 55.755 	
-171 	 468 	 -702 	46.305 	 22.05 	 54.915 	
-159 	 464 	 -712 	47.25 	 17.92 	 53.97 	
-174 	 456 	 -721 	48.265 	 14.595 	 52.885 	
-161 	 446 	 -729 	49.28 	 10.99 	 51.52 	
-168 	 424 	 -731 	50.925 	 7.21 	 49.945 	
-183 	 415 	 -745 	53.865 	 3.255 	 48.195 	
-184 	 399 	 -776 	54.985 	 -0.49 	 46.27 	
-181 	 355 	 -708 	55.44 	 -3.29 	 44.065 	
-175 	 338 	 -694 	58.59 	 -4.27 	 41.825 	
-174 	 341 	 -808 	61.705 	 -3.675 	 39.41 	
-206 	 259 	 -831 	62.615 	 -2.135 	 36.785 	
-342 	 30 	 -741 	63.28 	 -1.785 	 33.565 	
-637 	 -362 	 -711 	64.4 	 -5.215 	 28.49 	
-1168 	 -1059 	 -731 	62.58 	 -16.52 	 19.95 	
-1897 	 -2354 	 -936 	55.475 	 -43.855 	 7.42 	
-2653 	 -3917 	 -2008 	48.16 	 -95.41 	 -6.65 	
-2700 	 -4473 	 -3644 	40.53 	 -166.81 	 -18.865 	
-1918 	 -3295 	 -4935 	17.745 	 -223.09 	 -27.65 	
-1168 	 -2307 	 -4710 	-31.465 	 -216.93 	 -35.28 	
-328 	 -2005 	 -4199 	-91.56 	 -138.11 	 -41.335 	
-94 	 -1796 	 -4253 	-137.97 	 -4.935 	 -58.695 	
-1251 	 -1198 	 -5250 	-194.915 	 137.62 	 -84.735 	
-2517 	 -999 	 -5038 	-292.53 	 228.06 	 -96.915 	
-2424 	 -1078 	 -3774 	-395.43 	 243.495 	 -86.87 	
-1164 	 -772 	 -3553 	-485.1 	 200.025 	 -78.505 	
-342 	 -367 	 -3693 	-583.275 	 135.485 	 -84.98 	
-352 	 0 	 -3228 	-689.01 	 68.74 	 -85.575 	
-183 	 492 	 -2409 	-789.74 	 5.495 	 -63 	
448 	 1062 	 -1314 	-880.985 	 -47.81 	 -31.255 	
672 	 1603 	 -492 	-954.415 	 -87.885 	 -5.705 	
489 	 1897 	 -667 	-1013.43 	 -122.325 	 26.11 	
802 	 1477 	 -648 	-1071.14 	 -147.385 	 74.2 	
1737 	 441 	 545 	-1111.88 	 -157.22 	 125.685 	
2550 	 -630 	 2104 	-1105.97 	 -151.76 	 165.48 	
2750 	 -1179 	 2474 	-1059.17 	 -137.13 	 197.855 	
2637 	 -1533 	 2583 	-1003.1 	 -124.04 	 227.675 	
2026 	 -2421 	 4177 	-935.795 	 -112.735 	 249.025 	
1443 	 -3271 	 5059 	-835.03 	 -127.89 	 259.455 	
1659 	 -2679 	 4846 	-714.595 	 -156.73 	 265.37 	
1911 	 -2710 	 5058 	-591.745 	 -180.32 	 263.62 	
2140 	 -2406 	 5435 	-464.1 	 -210.28 	 243.04 	
1433 	 -1860 	 6214 	-323.505 	 -231.735 	 209.475 	
1216 	 -1301 	 5999 	-177.03 	 -254.24 	 179.83 	
1695 	 -834 	 5415 	-41.37 	 -250.915 	 143.955 	
2242 	 -484 	 4907 	77.175 	 -212.94 	 93.8 	
2197 	 -75 	 4519 	182.21 	 -143.36 	 33.25 	
1703 	 411 	 4078 	274.19 	 -56.91 	 -25.97 	
1116 	 847 	 3673 	351.645 	 21.98 	 -76.93 	
645 	 1145 	 3203 	415.03 	 72.66 	 -119.49 	
250 	 1345 	 2605 	465.185 	 96.425 	 -156.765 	
-2 	 1400 	 2037 	501.515 	 102.9 	 -188.265 	
-173 	 1376 	 1446 	526.855 	 105.35 	 -214.445 	
-121 	 1389 	 803 	543.095 	 114.17 	 -232.68 	
23 	 1331 	 267 	550.515 	 132.58 	 -243.915 	
127 	 1174 	 -106 	550.935 	 156.59 	 -251.195 	
67 	 1093 	 -289 	546.98 	 178.22 	 -254.205 	
-61 	 1010 	 -368 	539.56 	 190.505 	 -249.13 	
-145 	 993 	 -457 	528.22 	 188.79 	 -237.02 	
-177 	 932 	 -446 	513.485 	 174.475 	 -222.005 	
-204 	 860 	 -473 	498.015 	 151.27 	 -205.45 	
-297 	 845 	 -685 	480.97 	 124.355 	 -188.615 	
-350 	 877 	 -837 	460.74 	 97.965 	 -169.575 	
-307 	 753 	 -942 	439.145 	 75.495 	 -150.01 	
-260 	 650 	 -1163 	418.145 	 60.655 	 -132.58 	
-315 	 654 	 -1399 	395.15 	 55.545 	 -116.2 	
-294 	 617 	 -1519 	370.23 	 58.135 	 -97.58 	
-127 	 580 	 -1528 	347.375 	 66.605 	 -79.24 	
-33 	 597 	 -1537 	327.39 	 78.015 	 -64.4 	
-141 	 603 	 -1519 	306.67 	 88.935 	 -51.66 	
-417 	 642 	 -1435 	285.915 	 94.395 	 -37.66 	
-433 	 631 	 -1423 	265.615 	 90.405 	 -21.7 	
-449 	 498 	 -1337 	245.735 	 78.855 	 -7.805 	
-516 	 427 	 -1262 	227.185 	 60.585 	 2.765 	
-631 	 388 	 -1211 	210.665 	 38.85 	 11.76 	
-648 	 379 	 -1222 	195.335 	 15.085 	 21.525 	
-566 	 325 	 -1209 	180.32 	 -6.79 	 29.295 	
-526 	 292 	 -1158 	167.02 	 -24.535 	 33.74 	
-551 	 309 	 -1142 	155.82 	 -36.855 	 36.925 	
-528 	 337 	 -1167 	145.18 	 -43.96 	 40.565 	
-483 	 341 	 -1165 	134.54 	 -46.305 	 43.225 	
-456 	 325 	 -1125 	125.44 	 -44.905 	 44.275 	
-441 	 335 	 -1090 	117.81 	 -40.53 	 44.765 	
-419 	 384 	 -1062 	110.635 	 -33.915 	 44.905 	
-395 	 429 	 -1028 	103.88 	 -25.34 	 44.415 	
-364 	 459 	 -999 	98.315 	 -15.785 	 43.645 	
-369 	 490 	 -954 	93.205 	 -4.62 	 42.595 	
-309 	 515 	 -955 	88.305 	 6.335 	 41.72 	
-244 	 534 	 -940 	84.14 	 17.92 	 41.055 	
-206 	 551 	 -888 	80.43 	 29.225 	 40.32 	
-165 	 578 	 -842 	77.14 	 39.375 	 39.375 	
-156 	 609 	 -802 	74.585 	 47.95 	 38.465 	
-161 	 631 	 -788 	72.66 	 54.04 	 38.01 	
-160 	 626 	 -757 	70.63 	 57.61 	 37.73 	
-135 	 610 	 -735 	68.845 	 58.38 	 37.345 	
-136 	 586 	 -690 	67.76 	 57.61 	 36.715 	
-122 	 581 	 -681 	67.305 	 54.67 	 36.26 	
-112 	 567 	 -687 	66.955 	 50.435 	 35.875 	
-111 	 538 	 -678 	66.92 	 44.87 	 35.315 	
-151 	 510 	 -662 	68.11 	 36.61 	 34.72 	
-89 	 495 	 -674 	69.58 	 26.67 	 34.3 	
-107 	 455 	 -658 	68.25 	 16.275 	 33.215 	
-159 	 442 	 -502 	68.915 	 7.35 	 31.92 	
-83 	 478 	 -614 	72.45 	 -0.735 	 31.745 	
-18 	 517 	 -765 	73.64 	 -7.455 	 30.765 	
-64 	 492 	 -682 	72.765 	 -12.74 	 28.595 	
-111 	 445 	 -591 	74.41 	 -17.675 	 26.95 	
-95 	 453 	 -674 	77.84 	 -21.455 	 26.005 	
-51 	 465 	 -780 	78.96 	 -23.275 	 24.535 	
-42 	 432 	 -762 	78.995 	 -23.485 	 21.98 	
-71 	 393 	 -743 	81.445 	 -22.89 	 19.635 	
-59 	 379 	 -844 	84.945 	 -21.98 	 18.06 	
-68 	 329 	 -908 	86.065 	 -20.86 	 15.505 	
-113 	 228 	 -762 	86.905 	 -18.795 	 12.32 	
-163 	 79 	 -800 	88.55 	 -18.06 	 10.045 	
-346 	 -137 	 -815 	88.865 	 -17.395 	 5.705 	
-670 	 -535 	 -777 	86.415 	 -19.565 	 -2.275 	
-1098 	 -1166 	 -885 	83.685 	 -27.895 	 -12.705 	
-1720 	 -2053 	 -1325 	78.645 	 -45.01 	 -26.46 	
-2243 	 -3038 	 -2031 	63.945 	 -75.95 	 -43.715 	
-2077 	 -3463 	 -3302 	46.27 	 -120.225 	 -55.195 	
-1362 	 -3192 	 -4371 	27.545 	 -148.33 	 -60.41 	
-676 	 -2748 	 -4760 	-14.14 	 -135.835 	 -72.415 	
-305 	 -2277 	 -4875 	-73.99 	 -74.55 	 -85.925 	
-203 	 -1980 	 -4469 	-134.96 	 18.515 	 -98.98 	
-937 	 -1455 	 -4460 	-198.94 	 106.19 	 -117.355 	
-1865 	 -951 	 -4435 	-281.61 	 154.805 	 -128.59 	
-1934 	 -652 	 -4035 	-379.12 	 151.83 	 -123.13 	
-1010 	 -399 	 -3755 	-479.22 	 113.575 	 -111.79 	
-46 	 -54 	 -3552 	-579.495 	 64.89 	 -107.275 	
88 	 449 	 -3016 	-679.49 	 16.03 	 -104.58 	
-182 	 1015 	 -2352 	-774.935 	 -35.56 	 -88.235 	
-148 	 1565 	 -1389 	-864.01 	 -89.075 	 -55.02 	
215 	 1870 	 -747 	-939.225 	 -140.77 	 -17.36 	
339 	 2112 	 -607 	-998.76 	 -181.335 	 18.83 	
667 	 1814 	 -467 	-1051.72 	 -210.35 	 63.56 	
1402 	 901 	 563 	-1084.44 	 -217.84 	 115.955 	
2218 	 -240 	 1837 	-1072.23 	 -208.075 	 162.61 	
2463 	 -1165 	 2038 	-1019.31 	 -179.9 	 198.275 	
2302 	 -1797 	 1938 	-958.125 	 -149.45 	 225.925 	
1657 	 -2687 	 3252 	-891.205 	 -118.125 	 243.32 	
1032 	 -3080 	 4391 	-790.685 	 -100.905 	 246.575 	
1304 	 -2836 	 4384 	-670.215 	 -99.015 	 249.655 	
1741 	 -2546 	 4560 	-550.55 	 -100.415 	 239.015 	
1652 	 -2287 	 5516 	-425.915 	 -108.64 	 208.425 	
1046 	 -1617 	 6115 	-290.01 	 -128.485 	 177.52 	
916 	 -1123 	 6126 	-151.41 	 -157.36 	 156.73 	
1451 	 -793 	 5721 	-22.855 	 -177.275 	 129.535 	
1774 	 -338 	 5310 	90.51 	 -174.055 	 86.765 	
1591 	 -3 	 4956 	193.585 	 -140.77 	 37.695 	
1291 	 437 	 4086 	284.795 	 -83.405 	 -7.735 	
957 	 822 	 3440 	357.28 	 -14.595 	 -48.65 	
595 	 1030 	 3077 	416.255 	 41.79 	 -87.605 	
134 	 1230 	 2539 	467.46 	 78.995 	 -122.745 	
-218 	 1319 	 1819 	506.17 	 99.715 	 -149.415 	
-279 	 1242 	 1158 	530.18 	 109.83 	 -169.12 	
-235 	 1191 	 720 	543.585 	 120.05 	 -185.78 	
-177 	 1177 	 353 	552.93 	 133.315 	 -197.96 	
-124 	 1062 	 -54 	558.005 	 149.52 	 -203.49 	
-67 	 1013 	 -454 	556.395 	 162.68 	 -203.98 	
-88 	 783 	 -599 	549.325 	 170.135 	 -200.095 	
-193 	 490 	 -702 	539.385 	 167.37 	 -193.515 	
-387 	 549 	 -892 	528.535 	 155.995 	 -182.385 	
-322 	 502 	 -972 	514.885 	 136.325 	 -165.585 	
-282 	 475 	 -988 	498.75 	 114.275 	 -151.55 	
-342 	 477 	 -1056 	483.035 	 93.975 	 -137.585 	
-327 	 496 	 -1240 	465.955 	 76.405 	 -121.695 	
-247 	 457 	 -1346 	445.2 	 63.805 	 -105.455 	
-245 	 467 	 -1363 	423.955 	 56.175 	 -90.09 	
-231 	 485 	 -1433 	403.62 	 51.38 	 -74.76 	
-202 	 473 	 -1429 	382.305 	 47.67 	 -59.71 	
-219 	 480 	 -1368 	361.025 	 43.365 	 -46.445 	
-264 	 454 	 -1373 	342.265 	 38.465 	 -32.97 	
-298 	 397 	 -1498 	323.54 	 32.165 	 -20.02 	
-313 	 333 	 -1591 	303.17 	 27.09 	 -8.925 	
-313 	 304 	 -1570 	282.8 	 25.305 	 1.295 	
-198 	 338 	 -1535 	265.685 	 27.51 	 11.515 	
-154 	 406 	 -1567 	249.69 	 34.965 	 18.34 	
-178 	 522 	 -1568 	232.96 	 45.395 	 24.57 	
-296 	 570 	 -1454 	215.39 	 55.825 	 30.66 	
-326 	 606 	 -1389 	199.29 	 62.51 	 37.555 	
-314 	 621 	 -1364 	183.785 	 64.925 	 43.33 	
-371 	 636 	 -1302 	167.965 	 62.86 	 46.935 	
-449 	 644 	 -1230 	152.88 	 56.42 	 50.295 	
-453 	 643 	 -1180 	138.74 	 46.76 	 53.76 	
-409 	 649 	 -1137 	125.685 	 34.825 	 56.595 	
-397 	 656 	 -1107 	113.82 	 22.155 	 57.33 	
-422 	 652 	 -1107 	102.69 	 10.465 	 58.45 	
-321 	 630 	 -1105 	91.875 	 0.455 	 60.27 	
-201 	 611 	 -1100 	82.39 	 -5.495 	 60.62 	
-169 	 609 	 -1115 	74.375 	 -6.93 	 59.71 	
-166 	 606 	 -1127 	67.13 	 -4.9 	 59.535 	
-116 	 589 	 -1105 	60.06 	 -0.21 	 59.99 	
-70 	 571 	 -1068 	54.215 	 6.125 	 59.57 	
-69 	 552 	 -1055 	49.21 	 13.09 	 58.38 	
-83 	 533 	 -1037 	44.45 	 20.3 	 57.505 	
-52 	 532 	 -1016 	40.46 	 27.055 	 56.98 	
-26 	 528 	 -980 	37.31 	 33.46 	 56 	
-18 	 532 	 -954 	34.65 	 38.815 	 54.81 	
0 	 522 	 -934 	32.585 	 42.665 	 54.11 	
-21 	 492 	 -891 	31.71 	 43.75 	 53.34 	
0 	 491 	 -894 	31.92 	 41.405 	 52.43 	
-7 	 442 	 -913 	29.505 	 37.03 	 51.73 	
-45 	 401 	 -678 	27.72 	 31.85 	 50.505 	
1 	 429 	 -693 	29.855 	 26.46 	 49.665 	
40 	 479 	 -872 	31.185 	 21.455 	 49.245 	
25 	 441 	 -838 	29.295 	 16.695 	 48.195 	
7 	 359 	 -712 	29.54 	 11.27 	 46.69 	
0 	 344 	 -744 	32.55 	 5.53 	 45.64 	
3 	 361 	 -832 	34.335 	 -0.49 	 44.765 	
0 	 336 	 -854 	35.14 	 -7.245 	 43.295 	
-59 	 300 	 -703 	36.19 	 -12.985 	 41.16 	
-18 	 286 	 -730 	38.01 	 -19.25 	 39.48 	
-17 	 321 	 -823 	41.405 	 -22.61 	 37.73 	
-62 	 286 	 -848 	42.98 	 -23.73 	 35.385 	
-50 	 157 	 -825 	42.945 	 -23.66 	 32.83 	
-103 	 17 	 -770 	44.625 	 -22.505 	 29.645 	
-202 	 -104 	 -892 	47.32 	 -21.525 	 25.935 	
-378 	 -337 	 -1028 	48.195 	 -21.455 	 21.035 	
-676 	 -780 	 -1079 	45.57 	 -23.17 	 13.65 	
-1200 	 -1426 	 -1023 	38.325 	 -29.12 	 1.715 	
-1583 	 -2161 	 -1351 	27.02 	 -46.83 	 -11.305 	
-1541 	 -2878 	 -2365 	17.395 	 -79.52 	 -19.81 	
-1247 	 -3231 	 -3612 	4.515 	 -117.005 	 -32.585 	
-1374 	 -3128 	 -4212 	-28.315 	 -139.93 	 -53.69 	
-1224 	 -2711 	 -4406 	-76.615 	 -140.385 	 -63.14 	
-495 	 -2357 	 -4483 	-126.735 	 -109.515 	 -67.235 	
-290 	 -2073 	 -4533 	-185.99 	 -55.58 	 -89.915 	
-1195 	 -1459 	 -4543 	-258.545 	 8.785 	 -117.88 	
-1705 	 -1033 	 -4430 	-341.565 	 56.035 	 -121.555 	
-1058 	 -800 	 -4291 	-433.335 	 75.285 	 -112.945 	
-240 	 -656 	 -4006 	-530.11 	 74.585 	 -115.885 	
-147 	 -233 	 -3553 	-625.555 	 56.175 	 -124.915 	
-294 	 278 	 -3122 	-720.615 	 18.34 	 -119.945 	
-27 	 615 	 -2189 	-814.275 	 -29.19 	 -97.265 	
494 	 1108 	 -1130 	-898.38 	 -75.915 	 -73.395 	
379 	 1789 	 -399 	-967.75 	 -109.69 	 -55.615 	
196 	 2140 	 -268 	-1026.34 	 -131.25 	 -24.815 	
931 	 1693 	 13 	-1075.48 	 -135.205 	 23.275 	
2271 	 446 	 988 	-1099.77 	 -123.235 	 65.555 	
2826 	 -677 	 2234 	-1082.66 	 -104.965 	 89.215 	
2270 	 -1260 	 2638 	-1037.23 	 -96.32 	 111.055 	
1707 	 -1617 	 3238 	-985.495 	 -113.645 	 145.18 	
1331 	 -2634 	 4640 	-913.675 	 -151.305 	 177.835 	
1225 	 -2953 	 5007 	-806.505 	 -200.935 	 194.495 	
1779 	 -2649 	 4235 	-688.38 	 -240.87 	 205.485 	
2057 	 -2511 	 4193 	-570.08 	 -249.935 	 202.125 	
1928 	 -2338 	 5063 	-443.17 	 -247.695 	 184.625 	
1397 	 -1739 	 5680 	-301.21 	 -243.285 	 160.265 	
1140 	 -1252 	 5443 	-157.815 	 -244.545 	 134.82 	
1317 	 -951 	 4993 	-30.38 	 -237.825 	 102.235 	
1602 	 -604 	 4683 	81.69 	 -209.72 	 58.1 	
1624 	 -152 	 4245 	182.945 	 -155.12 	 7.91 	
1365 	 223 	 3729 	270.655 	 -81.095 	 -42.7 	
935 	 596 	 3253 	342.44 	 -4.55 	 -90.37 	
462 	 955 	 2862 	400.575 	 58.59 	 -131.705 	
109 	 1230 	 2402 	447.405 	 103.88 	 -164.15 	
-83 	 1372 	 1860 	482.16 	 131.53 	 -189.98 	
-190 	 1458 	 1359 	504.63 	 145.145 	 -211.855 	
-359 	 1499 	 1007 	518.385 	 151.62 	 -228.935 	
-420 	 1423 	 627 	526.225 	 153.51 	 -238.595 	
-400 	 1283 	 221 	527.31 	 153.195 	 -242.935 	
-304 	 1211 	 -104 	522.655 	 150.115 	 -243.355 	
-256 	 1074 	 -259 	514.64 	 144.865 	 -239.715 	
-254 	 918 	 -411 	505.645 	 137.34 	 -232.89 	
-302 	 955 	 -650 	495.145 	 129.395 	 -222.705 	
-264 	 902 	 -826 	481.53 	 123.235 	 -207.375 	
-169 	 758 	 -880 	465.5 	 118.825 	 -191.31 	
-187 	 709 	 -927 	450.59 	 117.53 	 -175.805 	
-277 	 690 	 -1113 	435.68 	 117.425 	 -158.55 	
-337 	 607 	 -1259 	416.99 	 117.95 	 -139.545 	
-319 	 551 	 -1297 	398.055 	 119.07 	 -119.735 	
-244 	 507 	 -1268 	380.66 	 121.52 	 -100.03 	
-149 	 568 	 -1297 	363.615 	 123.69 	 -81.83 	
-208 	 589 	 -1291 	346.465 	 126.245 	 -65.94 	
-275 	 543 	 -1224 	330.26 	 125.02 	 -48.755 	
-362 	 588 	 -1240 	314.51 	 117.39 	 -31.045 	
-396 	 502 	 -1234 	298.27 	 104.09 	 -14.175 	
-419 	 337 	 -1184 	281.89 	 85.575 	 -0.91 	
-500 	 291 	 -1161 	267.365 	 65.765 	 10.5 	
-492 	 335 	 -1239 	254.87 	 46.165 	 21.875 	
-430 	 340 	 -1262 	241.885 	 29.33 	 31.395 	
-390 	 358 	 -1228 	228.41 	 15.75 	 38.92 	
-419 	 368 	 -1158 	217.105 	 5.67 	 44.87 	
-428 	 399 	 -1201 	206.92 	 -2.87 	 50.4 	
-412 	 405 	 -1231 	195.3 	 -10.465 	 55.195 	
-405 	 372 	 -1158 	183.715 	 -17.22 	 59.045 	
-413 	 373 	 -1092 	174.335 	 -24.08 	 61.67 	
-420 	 408 	 -1096 	165.55 	 -30.73 	 63.49 	
-412 	 419 	 -1087 	156.415 	 -36.68 	 64.96 	
-390 	 400 	 -1043 	147.945 	 -41.125 	 66.01 	
-360 	 390 	 -1056 	141.05 	 -43.75 	 66.5 	
-316 	 387 	 -1094 	134.61 	 -44.135 	 66.57 	
-279 	 378 	 -1114 	128.555 	 -42.7 	 66.22 	
-281 	 362 	 -1067 	123.13 	 -38.465 	 65.625 	
-216 	 365 	 -1080 	118.055 	 -33.32 	 65.345 	
-164 	 390 	 -1063 	114.1 	 -26.25 	 64.645 	
-157 	 420 	 -1056 	110.32 	 -17.045 	 63.35 	
-140 	 439 	 -1050 	105.7 	 -7.315 	 62.545 	
-113 	 439 	 -992 	102.025 	 2.66 	 62.09 	
-84 	 465 	 -1006 	99.575 	 12.285 	 61.04 	
-97 	 484 	 -1006 	95.445 	 21.28 	 59.955 	
-82 	 482 	 -914 	91.315 	 28.56 	 59.36 	
-74 	 469 	 -879 	89.005 	 34.3 	 58.345 	
-80 	 508 	 -927 	87.15 	 37.45 	 57.225 	
-137 	 506 	 -871 	83.23 	 38.43 	 55.965 	
-164 	 475 	 -763 	80.325 	 36.12 	 55.125 	
-197 	 407 	 -814 	80.325 	 30.135 	 54.005 	
-178 	 454 	 -818 	79.03 	 23.695 	 51.555 	
-163 	 477 	 -829 	73.29 	 15.715 	 50.645 	
-144 	 422 	 -597 	71.12 	 10.885 	 49.63 	
-68 	 448 	 -725 	73.15 	 6.86 	 47.04 	
-73 	 506 	 -916 	71.33 	 4.445 	 44.17 	
-120 	 463 	 -824 	66.92 	 2.975 	 42.63 	
-102 	 382 	 -739 	66.675 	 1.295 	 41.02 	
-96 	 368 	 -878 	68.145 	 -0.42 	 38.395 	
-101 	 372 	 -960 	66.325 	 -1.715 	 35.77 	
-123 	 311 	 -855 	64.05 	 -2.45 	 33.39 	
-138 	 227 	 -840 	64.68 	 -2.87 	 30.59 	
-180 	 128 	 -953 	65.03 	 -2.695 	 26.985 	
-279 	 -24 	 -973 	62.16 	 -1.33 	 22.505 	
-471 	 -308 	 -936 	58.905 	 -0.175 	 16.73 	
-791 	 -763 	 -1031 	54.915 	 0.455 	 8.05 	
-1171 	 -1423 	 -1329 	46.235 	 -0.98 	 -4.935 	
-1734 	 -2101 	 -1601 	32.445 	 -2.765 	 -23.835 	
-2125 	 -2562 	 -2246 	15.19 	 -9.94 	 -45.08 	
-1770 	 -2782 	 -3387 	-5.075 	 -19.075 	 -55.93 	
-1113 	 -2811 	 -3892 	-32.06 	 -11.725 	 -62.3 	
-309 	 -2762 	 -4160 	-73.115 	 12.74 	 -76.65 	
-245 	 -2407 	 -4262 	-123.445 	 56.7 	 -99.155 	
-745 	 -1968 	 -3947 	-177.59 	 96.845 	 -118.545 	
-1310 	 -1584 	 -3850 	-241.185 	 106.855 	 -129.85 	
-1506 	 -1176 	 -3801 	-318.535 	 82.145 	 -135.8 	
-1165 	 -755 	 -3666 	-405.93 	 35.77 	 -134.505 	
-356 	 -250 	 -3456 	-497 	 -11.515 	 -128.205 	
305 	 368 	 -3149 	-587.545 	 -42.665 	 -122.255 	
473 	 1006 	 -2696 	-676.165 	 -58.765 	 -113.085 	
380 	 1498 	 -1970 	-761.39 	 -71.47 	 -94.15 	
377 	 1910 	 -1165 	-839.44 	 -92.54 	 -67.06 	
353 	 2117 	 -656 	-907.235 	 -123.9 	 -37.135 	
406 	 2022 	 -426 	-962.64 	 -157.885 	 -3.5 	
793 	 1316 	 -51 	-1003.31 	 -184.94 	 37.695 	
1565 	 171 	 686 	-1014.86 	 -195.86 	 82.495 	
2121 	 -678 	 1277 	-991.41 	 -188.195 	 121.03 	
2183 	 -1226 	 1764 	-951.195 	 -170.87 	 153.615 	
1813 	 -1735 	 2823 	-897.365 	 -154.56 	 180.11 	
1244 	 -2258 	 3692 	-816.585 	 -150.325 	 196.805 	
1158 	 -2174 	 3609 	-719.495 	 -155.995 	 210.98 	
1411 	 -2241 	 3865 	-620.795 	 -158.41 	 218.61 	
1698 	 -2348 	 4499 	-507.15 	 -156.24 	 209.755 	
1299 	 -1736 	 4658 	-383.075 	 -153.125 	 188.335 	
816 	 -1105 	 5003 	-261.17 	 -160.335 	 171.115 	
922 	 -953 	 5342 	-140.245 	 -177.065 	 153.93 	
1290 	 -470 	 4895 	-23.835 	 -188.335 	 125.37 	
1365 	 20 	 4429 	77.56 	 -175.665 	 86.485 	
1323 	 366 	 3960 	165.375 	 -137.095 	 46.55 	
1159 	 756 	 3434 	240.94 	 -78.365 	 6.93 	
813 	 1156 	 3064 	302.89 	 -16.345 	 -31.815 	
466 	 1459 	 2704 	354.795 	 29.925 	 -66.605 	
161 	 1620 	 2206 	397.25 	 58.52 	 -96.075 	
14 	 1699 	 1608 	426.86 	 71.785 	 -121.835 	
-64 	 1700 	 1182 	445.025 	 79.24 	 -145.11 	
-58 	 1646 	 810 	457.835 	 87.78 	 -163.73 	
-9 	 1581 	 377 	466.27 	 99.995 	 -177.485 	
35 	 1464 	 -8 	468.825 	 112.595 	 -187.355 	
-67 	 1325 	 -187 	467.355 	 120.75 	 -193.9 	
-213 	 1185 	 -306 	465.115 	 120.61 	 -195.545 	
-236 	 1018 	 -502 	461.93 	 112.7 	 -192.325 	
-235 	 889 	 -664 	455.98 	 102.06 	 -187.635 	
-199 	 754 	 -733 	448.35 	 93.66 	 -180.88 	
-224 	 713 	 -861 	440.615 	 89.845 	 -172.34 	
-163 	 647 	 -1021 	432.005 	 91.805 	 -161.175 	
-66 	 530 	 -1115 	421.015 	 98.525 	 -148.82 	
-130 	 433 	 -1208 	409.08 	 110.11 	 -137.655 	
-217 	 383 	 -1309 	397.215 	 124.285 	 -124.81 	
-212 	 398 	 -1352 	384.23 	 139.51 	 -109.62 	
-123 	 377 	 -1350 	370.965 	 154.525 	 -94.08 	
-81 	 406 	 -1347 	358.4 	 167.685 	 -79.765 	
-139 	 475 	 -1340 	345.45 	 175.455 	 -66.535 	
-226 	 459 	 -1275 	331.555 	 175.595 	 -52.535 	
-375 	 499 	 -1264 	317.52 	 166.11 	 -39.13 	
-404 	 496 	 -1226 	303.1 	 147.63 	 -24.605 	
-337 	 408 	 -1160 	288.645 	 121.24 	 -11.13 	
-327 	 374 	 -1126 	275.59 	 91.035 	 -1.33 	
-388 	 397 	 -1125 	262.745 	 59.29 	 7.21 	
-415 	 377 	 -1120 	249.445 	 28.07 	 16.17 	
-357 	 341 	 -1116 	236.46 	 -0.7 	 24.465 	
-313 	 322 	 -1159 	224.28 	 -24.99 	 30.135 	
-326 	 282 	 -1209 	211.855 	 -42.735 	 33.95 	
-310 	 252 	 -1299 	199.36 	 -53.62 	 37.8 	
-272 	 254 	 -1329 	186.935 	 -55.685 	 40.95 	
-218 	 312 	 -1365 	174.58 	 -49.035 	 42.595 	
-169 	 402 	 -1386 	161.945 	 -34.965 	 43.925 	
-122 	 470 	 -1352 	149.695 	 -15.785 	 45.045 	
-97 	 521 	 -1363 	138.285 	 4.9 	 45.675 	
-141 	 552 	 -1345 	126.315 	 24.395 	 45.955 	
-197 	 554 	 -1269 	114.065 	 38.885 	 46.62 	
-237 	 544 	 -1199 	102.83 	 47.075 	 47.46 	
-259 	 546 	 -1184 	92.26 	 49.105 	 48.02 	
-268 	 532 	 -1172 	81.41 	 46.515 	 48.44 	
-241 	 492 	 -1113 	71.19 	 40.74 	 49.14 	
-185 	 475 	 -1081 	62.65 	 33.39 	 49.7 	
-146 	 489 	 -1088 	54.705 	 26.18 	 49.595 	
-138 	 496 	 -1072 	46.69 	 19.915 	 49.525 	
-130 	 484 	 -1028 	39.305 	 14.385 	 50.05 	
-113 	 472 	 -1003 	33.145 	 9.66 	 50.54 	
-107 	 467 	 -1007 	27.405 	 5.705 	 50.505 	
-125 	 450 	 -984 	21.77 	 2.205 	 50.33 	
-127 	 428 	 -953 	16.905 	 -0.665 	 50.54 	
-109 	 410 	 -946 	13.16 	 -2.835 	 50.575 	
-94 	 394 	 -947 	9.695 	 -3.885 	 50.19 	
-92 	 373 	 -938 	6.545 	 -3.85 	 49.63 	
-89 	 347 	 -934 	4.235 	 -3.15 	 49.35 	
-75 	 316 	 -938 	2.555 	 -1.925 	 49 	
-71 	 261 	 -937 	1.12 	 -0.42 	 48.265 	
-113 	 164 	 -923 	0.07 	 0.735 	 47.075 	
-219 	 10 	 -922 	-0.77 	 1.4 	 45.255 	
-334 	 -233 	 -926 	-2.8 	 0 	 42.98 	
-507 	 -641 	 -948 	-5.88 	 -4.165 	 39.305 	
-773 	 -1210 	 -1170 	-8.96 	 -11.725 	 32.27 	
-1139 	 -1964 	 -1613 	-14.595 	 -21.665 	 21.805 	
-1347 	 -2649 	 -2244 	-25.725 	 -33.39 	 9.065 	
-1316 	 -3031 	 -3050 	-36.19 	 -41.615 	 -4.55 	
-1150 	 -3065 	 -3831 	-53.48 	 -42.175 	 -18.725 	
-753 	 -2937 	 -4203 	-88.62 	 -34.265 	 -28.49 	
-213 	 -2501 	 -4108 	-133.42 	 -20.37 	 -42.28 	
-425 	 -2012 	 -3820 	-183.54 	 -7.105 	 -68.46 	
-1197 	 -1504 	 -3545 	-241.15 	 -12.075 	 -92.05 	
-1654 	 -1002 	 -3671 	-312.06 	 -41.86 	 -100.87 	
-1281 	 -700 	 -3873 	-399.175 	 -84.105 	 -99.19 	
-470 	 -560 	 -3805 	-492.59 	 -118.055 	 -96.845 	
22 	 -182 	 -3744 	-585.235 	 -137.97 	 -97.37 	
-49 	 195 	 -3331 	-681.345 	 -154.455 	 -91.385 	
-316 	 535 	 -2472 	-776.79 	 -181.37 	 -73.92 	
-473 	 877 	 -1759 	-860.86 	 -221.06 	 -45.64 	
-267 	 1124 	 -1395 	-936.075 	 -265.23 	 -6.79 	
-40 	 1308 	 -1044 	-1004.5 	 -295.505 	 34.51 	
173 	 1039 	 -722 	-1056.34 	 -303.345 	 78.365 	
716 	 209 	 -339 	-1086.44 	 -288.19 	 129.815 	
1602 	 -946 	 437 	-1091.65 	 -252.98 	 181.09 	
2327 	 -1873 	 1184 	-1065.54 	 -197.96 	 221.585 	
2538 	 -2327 	 1776 	-1017.91 	 -131.95 	 249.06 	
2011 	 -2796 	 2639 	-956.41 	 -68.705 	 262.955 	
1647 	 -2989 	 3505 	-877.415 	 -29.575 	 270.69 	
1866 	 -2630 	 4325 	-785.68 	 -25.06 	 277.725 	
2270 	 -2314 	 5259 	-676.375 	 -56.42 	 273.7 	
1928 	 -1993 	 5801 	-546.455 	 -117.39 	 254.66 	
1083 	 -1721 	 5616 	-412.93 	 -195.545 	 239.89 	
848 	 -1740 	 5579 	-284.515 	 -278.04 	 237.79 	
1660 	 -1612 	 5510 	-158.48 	 -338.205 	 226.8 	
2367 	 -1187 	 4990 	-33.32 	 -356.44 	 187.67 	
2399 	 -630 	 4404 	79.485 	 -321.615 	 136.43 	
2244 	 -238 	 4007 	176.225 	 -243.18 	 89.04 	
2178 	 102 	 3621 	260.015 	 -143.885 	 43.82 	
1812 	 502 	 3209 	329.595 	 -49.175 	 -5.495 	
1084 	 907 	 2819 	383.46 	 22.645 	 -51.66 	
422 	 1214 	 2478 	425.25 	 68.705 	 -84.875 	
250 	 1313 	 2001 	456.75 	 90.755 	 -107.975 	
330 	 1326 	 1398 	477.05 	 97.58 	 -131.95 	
168 	 1380 	 955 	487.2 	 99.75 	 -158.41 	
-72 	 1367 	 698 	492.485 	 102.025 	 -178.71 	
-106 	 1333 	 332 	495.67 	 105.035 	 -189.77 	
19 	 1234 	 -43 	493.71 	 109.06 	 -197.855 	
24 	 1073 	 -244 	486.255 	 113.365 	 -206.43 	
-68 	 1009 	 -359 	477.54 	 115.395 	 -212.24 	
-156 	 960 	 -444 	469.315 	 115.08 	 -212.45 	
-109 	 960 	 -612 	459.06 	 112.245 	 -207.76 	
-63 	 950 	 -654 	445.865 	 110.11 	 -202.895 	
-98 	 931 	 -683 	433.475 	 109.83 	 -197.295 	
-142 	 885 	 -864 	421.26 	 111.58 	 -189.525 	
-170 	 792 	 -1066 	406.175 	 116.445 	 -179.585 	
-166 	 694 	 -1145 	389.305 	 124.95 	 -169.12 	
-114 	 650 	 -1153 	373.695 	 136.5 	 -157.36 	
-35 	 688 	 -1221 	360.115 	 149.03 	 -144.48 	
-7 	 690 	 -1258 	346.01 	 159.32 	 -132.3 	
-71 	 691 	 -1208 	331.66 	 164.71 	 -119.665 	
-183 	 709 	 -1096 	318.115 	 161.7 	 -106.995 	
-257 	 729 	 -1082 	305.235 	 149.66 	 -93.31 	
-345 	 636 	 -1076 	290.675 	 129.85 	 -80.675 	
-304 	 577 	 -1077 	275.205 	 104.055 	 -67.06 	
-260 	 524 	 -981 	261.345 	 76.195 	 -56.805 	
-285 	 583 	 -1023 	249.97 	 48.93 	 -48.72 	
-344 	 659 	 -1089 	237.195 	 25.095 	 -40.6 	
-329 	 662 	 -1063 	223.405 	 5.635 	 -31.92 	
-279 	 639 	 -1054 	210.98 	 -8.75 	 -25.165 	
-280 	 635 	 -1154 	199.185 	 -18.095 	 -20.545 	
-340 	 611 	 -1240 	186.2 	 -22.785 	 -16.485 	
-344 	 602 	 -1243 	172.445 	 -23.52 	 -11.865 	
-258 	 579 	 -1207 	159.915 	 -20.965 	 -7.665 	
-234 	 620 	 -1194 	149.205 	 -15.435 	 -5.565 	
-292 	 681 	 -1201 	138.53 	 -8.225 	 -3.99 	
-323 	 689 	 -1178 	127.365 	 -1.96 	 -1.155 	
-314 	 661 	 -1133 	116.9 	 2.17 	 1.645 	
-324 	 644 	 -1115 	107.415 	 3.675 	 3.22 	
-350 	 646 	 -1099 	98.28 	 2.345 	 4.515 	
-354 	 642 	 -1055 	89.215 	 -0.98 	 6.265 	
-327 	 642 	 -1015 	80.92 	 -5.32 	 7.63 	
-311 	 644 	 -982 	74.165 	 -9.73 	 8.68 	
-320 	 663 	 -964 	67.55 	 -13.405 	 9.45 	
-312 	 657 	 -941 	61.39 	 -16.31 	 10.465 	
-292 	 652 	 -917 	55.825 	 -17.885 	 11.375 	
-276 	 657 	 -882 	50.68 	 -18.13 	 11.865 	
-260 	 659 	 -869 	46.445 	 -17.57 	 12.04 	
-275 	 643 	 -833 	42.63 	 -15.015 	 12.145 	
-235 	 629 	 -835 	39.095 	 -12.145 	 12.32 	
-226 	 622 	 -802 	36.435 	 -7.98 	 12.285 	
-234 	 611 	 -790 	34.755 	 -3.5 	 11.97 	
-235 	 591 	 -803 	33.18 	 0.805 	 11.795 	
-220 	 555 	 -796 	32.095 	 4.76 	 11.9 	
-211 	 521 	 -771 	31.885 	 7.7 	 11.865 	
-218 	 502 	 -762 	32.27 	 10.01 	 11.13 	
-240 	 495 	 -764 	32.9 	 11.165 	 10.745 	
-227 	 481 	 -743 	33.495 	 11.83 	 10.92 	
-209 	 464 	 -724 	34.825 	 12.11 	 10.71 	
-220 	 466 	 -727 	36.4 	 12.075 	 10.01 	
-240 	 476 	 -716 	37.975 	 11.795 	 9.59 	
-243 	 479 	 -687 	39.48 	 11.655 	 9.345 	
-237 	 479 	 -682 	41.405 	 11.655 	 8.855 	
-238 	 478 	 -699 	43.365 	 12.145 	 8.085 	
-232 	 461 	 -721 	45.29 	 13.16 	 7.455 	
-223 	 418 	 -732 	47.53 	 14.665 	 6.93 	
-240 	 320 	 -738 	49.875 	 16.73 	 6.09 	
-333 	 100 	 -767 	52.185 	 18.585 	 4.76 	
-498 	 -264 	 -840 	53.62 	 19.11 	 2.66 	
-722 	 -778 	 -981 	54.635 	 17.08 	 -0.91 	
-1073 	 -1464 	 -1232 	55.125 	 12.46 	 -7.14 	
-1495 	 -2411 	 -1702 	50.54 	 4.375 	 -16.03 	
-1607 	 -3093 	 -2596 	41.58 	 -10.325 	 -25.025 	
-1101 	 -2945 	 -3728 	33.705 	 -27.335 	 -28.56 	
-669 	 -2562 	 -3964 	11.76 	 -36.505 	 -33.565 	
-388 	 -2465 	 -3876 	-27.86 	 -40.95 	 -43.05 	
-519 	 -1887 	 -3775 	-67.865 	 -36.155 	 -55.825 	
-1199 	 -1256 	 -3865 	-119.385 	 -35.42 	 -67.06 	
-1546 	 -950 	 -4046 	-189.315 	 -46.585 	 -68.32 	
-1403 	 -653 	 -4021 	-270.025 	 -57.435 	 -64.155 	
-765 	 -246 	 -4202 	-357.7 	 -61.39 	 -58.94 	
-302 	 126 	 -4103 	-453.88 	 -55.405 	 -55.825 	
-252 	 510 	 -3480 	-552.685 	 -54.775 	 -50.505 	
-451 	 1076 	 -2584 	-649.32 	 -74.06 	 -39.13 	
-566 	 1688 	 -1623 	-740.355 	 -112.84 	 -18.725 	
-368 	 2255 	 -915 	-820.715 	 -154.805 	 10.395 	
30 	 2515 	 -827 	-891.695 	 -184.17 	 43.12 	
481 	 2177 	 -669 	-955.99 	 -192.29 	 78.295 	
950 	 1360 	 232 	-1004.15 	 -182.28 	 115.85 	
1453 	 487 	 1429 	-1016.93 	 -163.59 	 154 	
1987 	 -649 	 2098 	-990.78 	 -145.11 	 192.115 	
2054 	 -1454 	 2590 	-942.585 	 -131.04 	 221.585 	
1499 	 -2033 	 3494 	-880.32 	 -129.115 	 240.52 	
1051 	 -2501 	 4326 	-790.895 	 -149.345 	 258.755 	
1346 	 -2325 	 4223 	-682.08 	 -190.365 	 275.065 	
1923 	 -2250 	 4297 	-566.44 	 -229.705 	 284.13 	
2011 	 -2235 	 4996 	-442.015 	 -264.46 	 274.75 	
1333 	 -1953 	 5546 	-299.845 	 -293.23 	 252.945 	
1101 	 -1431 	 5012 	-155.295 	 -316.925 	 237.02 	
1649 	 -1259 	 4727 	-27.825 	 -315.35 	 215.355 	
2322 	 -966 	 4568 	88.2 	 -281.61 	 171.605 	
2193 	 -326 	 4183 	195.86 	 -212.695 	 112.735 	
1717 	 233 	 3653 	287.385 	 -123.2 	 58.065 	
1266 	 631 	 3268 	360.885 	 -35.49 	 11.13 	
834 	 985 	 2926 	420.315 	 31.01 	 -32.62 	
418 	 1249 	 2444 	467.39 	 71.82 	 -72.485 	
125 	 1433 	 1855 	501.025 	 89.565 	 -106.89 	
-30 	 1529 	 1368 	522.41 	 93.45 	 -135.66 	
-46 	 1464 	 938 	535.395 	 91.315 	 -159.46 	
0 	 1383 	 442 	542.01 	 89.46 	 -180.355 	
36 	 1249 	 -25 	541.73 	 92.19 	 -198.415 	
9 	 1082 	 -326 	536.165 	 101.465 	 -212.1 	
2 	 944 	 -551 	528.92 	 115.815 	 -219.485 	
95 	 883 	 -818 	520.415 	 131.915 	 -221.095 	
170 	 823 	 -997 	508.97 	 148.82 	 -220.29 	
94 	 780 	 -992 	495.88 	 165.025 	 -217.28 	
23 	 797 	 -1012 	483.805 	 177.625 	 -207.865 	
-25 	 815 	 -1128 	470.05 	 185.535 	 -194.18 	
-10 	 803 	 -1190 	452.235 	 185.64 	 -178.71 	
-37 	 705 	 -1115 	432.81 	 178.36 	 -163.87 	
-177 	 622 	 -1123 	415.345 	 164.5 	 -148.54 	
-301 	 640 	 -1268 	396.445 	 145.46 	 -131.845 	
-269 	 631 	 -1295 	375.27 	 124.285 	 -113.925 	
-152 	 557 	 -1226 	354.48 	 104.405 	 -97.965 	
-102 	 569 	 -1265 	336.035 	 87.71 	 -83.86 	
-131 	 554 	 -1319 	316.68 	 74.235 	 -70.245 	
-182 	 541 	 -1388 	296.415 	 61.74 	 -56.735 	
-168 	 472 	 -1418 	276.465 	 50.33 	 -43.61 	
-114 	 370 	 -1404 	257.25 	 40.005 	 -32.935 	
-110 	 383 	 -1415 	240.59 	 32.305 	 -23.905 	
-145 	 418 	 -1399 	224.525 	 27.09 	 -15.05 	
-141 	 411 	 -1363 	208.985 	 22.575 	 -6.685 	
-160 	 394 	 -1332 	194.67 	 18.34 	 0.21 	
-247 	 381 	 -1304 	181.44 	 13.125 	 5.915 	
-232 	 325 	 -1361 	168.035 	 6.16 	 11.095 	
-252 	 277 	 -1348 	154.7 	 -0.84 	 15.05 	
-229 	 299 	 -1254 	142.975 	 -6.825 	 19.075 	
-226 	 354 	 -1214 	132.615 	 -11.375 	 21.175 	
-297 	 427 	 -1220 	122.43 	 -14.7 	 23.135 	
-325 	 440 	 -1185 	112.035 	 -17.36 	 25.55 	
-299 	 431 	 -1151 	102.27 	 -19.775 	 27.16 	
-297 	 437 	 -1151 	92.82 	 -21.385 	 27.65 	
-310 	 449 	 -1144 	83.79 	 -22.33 	 28.035 	
-294 	 443 	 -1119 	75.355 	 -22.715 	 28.84 	
-258 	 434 	 -1103 	67.515 	 -22.33 	 29.155 	
-251 	 434 	 -1095 	60.48 	 -21.175 	 28.805 	
-258 	 431 	 -1075 	53.69 	 -19.635 	 28.63 	
-237 	 429 	 -1044 	47.6 	 -17.92 	 28.77 	
-208 	 429 	 -1020 	42.35 	 -16.03 	 28.56 	
-199 	 435 	 -997 	37.45 	 -14.175 	 28 	
-192 	 440 	 -967 	33.145 	 -12.32 	 27.58 	
-185 	 443 	 -929 	29.435 	 -10.605 	 27.23 	
-171 	 440 	 -908 	26.425 	 -8.995 	 26.705 	
-168 	 439 	 -896 	23.59 	 -7.63 	 25.9 	
-182 	 440 	 -859 	21.21 	 -6.195 	 25.06 	
-173 	 430 	 -843 	19.74 	 -5.04 	 24.325 	
-155 	 425 	 -843 	18.48 	 -3.78 	 23.38 	
-154 	 422 	 -816 	17.465 	 -2.45 	 22.12 	
-162 	 417 	 -794 	17.045 	 -0.595 	 20.58 	
-160 	 415 	 -798 	17.325 	 1.26 	 19.11 	
-158 	 413 	 -799 	17.605 	 3.57 	 17.535 	
-159 	 404 	 -793 	18.27 	 6.23 	 15.715 	
-155 	 380 	 -806 	19.6 	 8.995 	 13.965 	
-142 	 353 	 -823 	21.245 	 11.935 	 12.215 	
-141 	 309 	 -830 	23.03 	 14.595 	 10.255 	
-162 	 238 	 -833 	25.025 	 17.115 	 7.98 	
-213 	 126 	 -812 	26.88 	 19.04 	 5.565 	
-317 	 -71 	 -761 	28.245 	 19.6 	 2.275 	
-535 	 -402 	 -794 	28.875 	 17.29 	 -2.45 	
-909 	 -922 	 -932 	27.475 	 10.22 	 -8.96 	
-1393 	 -1772 	 -1183 	21.455 	 -4.76 	 -18.095 	
-1715 	 -2795 	 -1889 	11.725 	 -33.32 	 -28.56 	
-1591 	 -3193 	 -3100 	3.92 	 -73.01 	 -38.99 	
-1357 	 -2888 	 -3840 	-11.55 	 -106.26 	 -51.975 	
-1035 	 -2535 	 -3944 	-46.83 	 -120.365 	 -62.3 	
-401 	 -2306 	 -4039 	-84.63 	 -100.205 	 -66.22 	
-11 	 -1834 	 -4358 	-129.325 	 -50.015 	 -77.84 	
-532 	 -1628 	 -4202 	-190.68 	 12.355 	 -98.56 	
-1437 	 -1412 	 -3844 	-259.14 	 61.53 	 -112.455 	
-1665 	 -1048 	 -3928 	-334.845 	 79.275 	 -111.195 	
-1041 	 -840 	 -3923 	-424.025 	 69.3 	 -105.455 	
-377 	 -593 	 -3451 	-517.755 	 43.61 	 -105.805 	
-196 	 -41 	 -2860 	-606.095 	 6.685 	 -106.435 	
-273 	 538 	 -2249 	-692.65 	 -39.935 	 -96.18 	
-180 	 980 	 -1608 	-777.07 	 -90.65 	 -73.325 	
118 	 1330 	 -1022 	-854.63 	 -140.665 	 -44.38 	
342 	 1590 	 -383 	-923.23 	 -183.365 	 -13.195 	
396 	 1628 	 199 	-975.1 	 -211.015 	 22.925 	
730 	 1273 	 467 	-1006.08 	 -225.75 	 67.55 	
1457 	 397 	 1158 	-1018.92 	 -227.185 	 115.115 	
2101 	 -851 	 2235 	-1001.42 	 -218.785 	 156.275 	
2086 	 -1495 	 2920 	-951.265 	 -201.6 	 186.515 	
1698 	 -1721 	 3177 	-885.745 	 -187.285 	 210.28 	
1520 	 -2174 	 3710 	-806.68 	 -174.755 	 230.755 	
1687 	 -2433 	 4186 	-710.92 	 -165.62 	 240.835 	
1992 	 -2129 	 4260 	-601.055 	 -158.9 	 238.805 	
1836 	 -1726 	 4654 	-482.545 	 -154.84 	 224.07 	
1423 	 -1443 	 5297 	-356.335 	 -162.82 	 204.295 	
1010 	 -999 	 5552 	-224.035 	 -180.845 	 183.575 	
1100 	 -687 	 5272 	-95.41 	 -197.925 	 159.915 	
1458 	 -332 	 4792 	20.475 	 -193.06 	 125.72 	
1674 	 30 	 4398 	122.15 	 -158.06 	 83.545 	
1507 	 310 	 4053 	212.66 	 -98.175 	 38.885 	
1101 	 662 	 3567 	291.305 	 -28.385 	 -3.465 	
727 	 953 	 3083 	354.27 	 31.815 	 -40.95 	
353 	 1154 	 2637 	403.585 	 73.08 	 -73.92 	
-17 	 1315 	 2088 	442.435 	 97.685 	 -101.885 	
-234 	 1449 	 1481 	469.98 	 109.095 	 -124.495 	
-263 	 1472 	 1005 	486.85 	 113.75 	 -142.835 	
-226 	 1490 	 570 	496.44 	 118.335 	 -158.69 	
-194 	 1519 	 106 	500.045 	 125.895 	 -170.73 	
-132 	 1442 	 -231 	496.615 	 135.87 	 -177.31 	
-74 	 1322 	 -395 	489.09 	 145.88 	 -180.145 	
-91 	 1260 	 -546 	480.48 	 152.705 	 -179.725 	
-161 	 1173 	 -693 	469.14 	 153.93 	 -175.14 	
-182 	 1046 	 -779 	455.315 	 149.24 	 -167.335 	
-235 	 969 	 -805 	440.72 	 141.015 	 -158.515 	
-283 	 911 	 -909 	426.16 	 130.725 	 -147.595 	
-223 	 881 	 -992 	410.445 	 120.925 	 -134.715 	
-134 	 775 	 -983 	394.52 	 113.155 	 -121.87 	
-162 	 742 	 -1028 	380.38 	 108.465 	 -109.585 	
-127 	 683 	 -1108 	365.715 	 104.825 	 -95.375 	
-68 	 597 	 -1113 	349.72 	 101.36 	 -80.885 	
-94 	 521 	 -1073 	334.74 	 97.51 	 -68.285 	
-164 	 482 	 -1061 	322.35 	 91.455 	 -55.86 	
-188 	 489 	 -1120 	310.275 	 83.055 	 -42.98 	
-202 	 464 	 -1106 	296.905 	 73.325 	 -31.185 	
-175 	 452 	 -1023 	284.585 	 62.44 	 -20.475 	
-210 	 479 	 -990 	274.085 	 51.205 	 -12.18 	
-243 	 525 	 -1018 	263.655 	 39.97 	 -3.5 	
-268 	 549 	 -1003 	252.28 	 29.085 	 4.865 	
-266 	 530 	 -955 	240.765 	 18.375 	 12.04 	
-255 	 499 	 -952 	229.39 	 8.19 	 17.43 	
-267 	 528 	 -985 	218.855 	 -0.63 	 21.735 	
-314 	 576 	 -974 	208.74 	 -7.525 	 25.48 	
-328 	 608 	 -958 	198.66 	 -13.3 	 28.91 	
-321 	 642 	 -968 	188.72 	 -17.36 	 31.5 	
-309 	 662 	 -993 	179.095 	 -19.355 	 33.075 	
-294 	 670 	 -1007 	169.645 	 -19.32 	 34.16 	
-275 	 662 	 -1022 	160.72 	 -17.745 	 34.93 	
-261 	 646 	 -1047 	152.565 	 -14.595 	 35.35 	
-240 	 628 	 -1074 	144.76 	 -10.745 	 35.56 	
-229 	 603 	 -1068 	137.34 	 -6.475 	 35.525 	
-222 	 581 	 -1058 	130.725 	 -2.45 	 35.28 	
-212 	 569 	 -1051 	124.88 	 1.015 	 34.895 	
-210 	 559 	 -1042 	119.35 	 4.13 	 34.545 	
-210 	 546 	 -1020 	114.1 	 6.72 	 34.125 	
-197 	 536 	 -991 	109.13 	 8.68 	 33.88 	
-186 	 522 	 -959 	104.44 	 9.87 	 33.355 	
-163 	 523 	 -953 	100.87 	 9.24 	 32.725 	
-211 	 518 	 -901 	96.845 	 8.89 	 31.57 	
-198 	 505 	 -880 	92.96 	 7.175 	 31.185 	
-180 	 510 	 -881 	89.775 	 5.88 	 31.01 	
-188 	 502 	 -874 	86.87 	 4.41 	 30.275 	
-176 	 482 	 -860 	83.72 	 2.8 	 29.645 	
-161 	 458 	 -848 	80.815 	 1.61 	 28.91 	
-155 	 441 	 -857 	78.61 	 0.875 	 27.965 	
-152 	 428 	 -865 	76.37 	 0.56 	 26.985 	
-139 	 406 	 -865 	74.235 	 0.63 	 26.18 	
-134 	 390 	 -853 	72.415 	 0.84 	 25.2 	
-132 	 379 	 -857 	71.12 	 1.575 	 23.975 	
-124 	 372 	 -889 	69.895 	 2.59 	 22.82 	
-116 	 343 	 -889 	68.67 	 3.885 	 21.91 	
-102 	 316 	 -883 	67.865 	 5.285 	 20.895 	
-123 	 292 	 -881 	67.375 	 6.895 	 19.565 	
-123 	 243 	 -902 	66.605 	 7.035 	 18.375 	
-222 	 138 	 -870 	65.625 	 7.595 	 17.15 	
-277 	 -50 	 -847 	63.7 	 5.11 	 14.945 	
-496 	 -371 	 -777 	60.095 	 1.365 	 11.06 	
-947 	 -778 	 -599 	51.975 	 -7 	 4.2 	
-1574 	 -1540 	 -663 	35.35 	 -27.93 	 -6.72 	
-1846 	 -2719 	 -1626 	20.37 	 -70.56 	 -15.645 	
-1744 	 -3665 	 -3170 	11.725 	 -125.51 	 -25.34 	
-1625 	 -3723 	 -4288 	-10.255 	 -169.89 	 -43.015 	
-1235 	 -3197 	 -4620 	-50.505 	 -174.44 	 -54.075 	
-244 	 -2692 	 -4496 	-98.63 	 -121.24 	 -54.145 	
547 	 -2329 	 -4401 	-151.62 	 -25.095 	 -64.26 	
29 	 -2018 	 -4310 	-209.58 	 79.345 	 -93.835 	
-1618 	 -1655 	 -3923 	-279.825 	 146.86 	 -121.205 	
-2427 	 -1390 	 -3673 	-363.23 	 145.565 	 -122.5 	
-1651 	 -1228 	 -3580 	-453.285 	 94.92 	 -111.265 	
-431 	 -894 	 -3490 	-544.915 	 33.04 	 -111.02 	
32 	 -309 	 -3174 	-634.13 	 -15.575 	 -118.16 	
-148 	 332 	 -2769 	-720.895 	 -49.385 	 -113.225 	
-200 	 871 	 -2247 	-805.595 	 -74.55 	 -90.545 	
114 	 1243 	 -1409 	-885.955 	 -100.73 	 -61.845 	
407 	 1433 	 -497 	-954.275 	 -131.32 	 -35.455 	
411 	 1646 	 -58 	-1004.15 	 -160.72 	 -6.895 	
489 	 1545 	 281 	-1044.33 	 -185.5 	 31.15 	
892 	 771 	 1257 	-1067.88 	 -200.48 	 77.21 	
1557 	 -490 	 2105 	-1053.15 	 -207.2 	 122.22 	
1966 	 -1349 	 2224 	-1007.69 	 -205.835 	 158.41 	
1650 	 -1934 	 2535 	-952.595 	 -194.74 	 183.435 	
1169 	 -2397 	 3433 	-879.76 	 -183.295 	 204.47 	
1191 	 -2498 	 3784 	-783.09 	 -176.435 	 223.86 	
1468 	 -2445 	 3805 	-678.265 	 -172.83 	 229.53 	
1558 	 -2170 	 4480 	-569.205 	 -168.945 	 218.33 	
1317 	 -1830 	 5425 	-444.71 	 -170.31 	 198.625 	
1066 	 -1186 	 5659 	-305.41 	 -174.65 	 181.825 	
1316 	 -803 	 5309 	-171.71 	 -175.875 	 164.885 	
1604 	 -605 	 5035 	-53.06 	 -166.845 	 133.56 	
1451 	 -177 	 4962 	53.69 	 -142.24 	 91.805 	
1180 	 192 	 4814 	153.405 	 -103.915 	 53.69 	
1134 	 448 	 4228 	244.125 	 -56.98 	 20.09 	
1084 	 682 	 3490 	318.185 	 -6.125 	 -16.275 	
732 	 928 	 3057 	376.18 	 41.545 	 -53.935 	
255 	 1155 	 2655 	426.3 	 80.045 	 -84.105 	
7 	 1266 	 2016 	469.07 	 109.095 	 -104.335 	
-20 	 1237 	 1379 	498.26 	 127.505 	 -121.135 	
-140 	 1180 	 952 	516.04 	 138.425 	 -138.81 	
-339 	 1190 	 631 	527.065 	 143.815 	 -151.935 	
-355 	 1140 	 316 	532.91 	 144.62 	 -156.415 	
-153 	 1015 	 -70 	532.7 	 142.275 	 -157.57 	
-77 	 1018 	 -395 	527.59 	 141.05 	 -159.845 	
-109 	 1051 	 -571 	519.19 	 141.295 	 -158.515 	
-84 	 1080 	 -722 	508.97 	 142.52 	 -150.885 	
32 	 1057 	 -853 	496.65 	 144.69 	 -140.735 	
40 	 1084 	 -1057 	482.51 	 145.145 	 -131.355 	
-104 	 1045 	 -1055 	465.71 	 143.465 	 -122.15 	
-198 	 990 	 -1027 	448.035 	 135.45 	 -109.13 	
-182 	 915 	 -1118 	429.275 	 121.065 	 -94.815 	
-157 	 881 	 -1147 	409.43 	 103.25 	 -81.69 	
-233 	 802 	 -1133 	389.55 	 84.49 	 -71.785 	
-268 	 758 	 -1143 	370.755 	 66.955 	 -61.39 	
-242 	 746 	 -1203 	351.75 	 52.955 	 -50.295 	
-134 	 680 	 -1275 	332.64 	 43.96 	 -39.655 	
-112 	 630 	 -1315 	314.23 	 40.67 	 -31.85 	
-146 	 576 	 -1345 	296.555 	 41.93 	 -25.2 	
-176 	 552 	 -1382 	279.335 	 46.235 	 -18.025 	
-168 	 527 	 -1359 	262.535 	 52.395 	 -11.095 	
-131 	 514 	 -1365 	247.625 	 57.4 	 -5.39 	
-159 	 520 	 -1318 	232.33 	 62.265 	 -0.245 	
-167 	 540 	 -1191 	216.685 	 63.245 	 4.9 	
-187 	 599 	 -1131 	203.07 	 59.815 	 9.03 	
-303 	 572 	 -1097 	190.33 	 52.185 	 11.935 	
-314 	 565 	 -1113 	177.73 	 38.815 	 16.94 	
-314 	 567 	 -1048 	164.43 	 22.12 	 20.3 	
-332 	 536 	 -1000 	153.09 	 3.22 	 22.365 	
-316 	 535 	 -1015 	142.905 	 -16.03 	 24.64 	
-311 	 539 	 -1013 	132.58 	 -32.725 	 26.425 	
-282 	 522 	 -1010 	122.745 	 -46.445 	 28.245 	
-245 	 490 	 -1023 	113.925 	 -56.63 	 29.435 	
-227 	 480 	 -1042 	106.015 	 -63.63 	 29.96 	
-219 	 467 	 -1047 	98.35 	 -67.095 	 30.415 	
-210 	 455 	 -1048 	91.455 	 -67.725 	 30.835 	
-192 	 460 	 -1036 	85.33 	 -65.275 	 31.08 	
-180 	 475 	 -1010 	79.765 	 -59.64 	 30.975 	
-174 	 481 	 -992 	74.725 	 -51.1 	 30.59 	
-164 	 479 	 -989 	70.175 	 -40.215 	 30.345 	
-144 	 475 	 -986 	65.975 	 -27.755 	 30.03 	
-133 	 472 	 -964 	62.37 	 -14.91 	 29.47 	
-135 	 478 	 -932 	59.185 	 -2.555 	 28.91 	
-142 	 480 	 -902 	56.525 	 8.33 	 28.525 	
-143 	 482 	 -884 	54.145 	 16.905 	 28.07 	
-158 	 476 	 -844 	52.08 	 22.995 	 27.72 	
-174 	 465 	 -814 	50.68 	 25.795 	 27.37 	
-198 	 451 	 -795 	49.63 	 25.9 	 26.88 	
-216 	 436 	 -776 	48.65 	 23.45 	 26.74 	
-201 	 418 	 -754 	47.845 	 18.725 	 26.67 	
-201 	 409 	 -733 	47.53 	 12.74 	 25.9 	
-226 	 414 	 -726 	47.425 	 5.95 	 24.92 	
-241 	 415 	 -713 	47.32 	 -0.98 	 24.395 	
-232 	 414 	 -705 	47.215 	 -7.49 	 23.73 	
-233 	 411 	 -706 	47.425 	 -12.88 	 22.435 	
-245 	 407 	 -727 	47.845 	 -17.185 	 20.895 	
-257 	 399 	 -740 	47.88 	 -19.67 	 19.565 	
-241 	 361 	 -771 	47.845 	 -20.895 	 18.2 	
-242 	 297 	 -806 	48.23 	 -20.405 	 16.275 	
-291 	 194 	 -848 	48.265 	 -18.095 	 13.825 	
-394 	 14 	 -854 	46.69 	 -14.35 	 11.13 	
-546 	 -268 	 -806 	42.735 	 -10.675 	 7.245 	
-839 	 -761 	 -870 	37.975 	 -8.75 	 1.225 	
-1370 	 -1530 	 -1190 	29.89 	 -12.32 	 -8.61 	
-1789 	 -2600 	 -2005 	16.31 	 -25.97 	 -19.81 	
-1748 	 -3467 	 -3109 	3.57 	 -46.515 	 -28.42 	
-1263 	 -3599 	 -4148 	-10.745 	 -62.825 	 -37.03 	
-825 	 -3268 	 -4646 	-40.145 	 -57.085 	 -47.075 	
-353 	 -2904 	 -4572 	-85.645 	 -26.88 	 -53.97 	
-225 	 -2262 	 -4175 	-136.78 	 19.985 	 -64.995 	
-798 	 -1661 	 -3927 	-194.285 	 56.245 	 -82.355 	
-1565 	 -1255 	 -3745 	-264.46 	 60.935 	 -91.385 	
-1727 	 -865 	 -3818 	-345.765 	 29.085 	 -85.715 	
-1043 	 -457 	 -3977 	-437.78 	 -23.17 	 -71.96 	
-200 	 -125 	 -3781 	-536.725 	 -76.3 	 -60.27 	
79 	 330 	 -3251 	-633.71 	 -125.16 	 -49.7 	
-178 	 963 	 -2412 	-726.425 	 -173.495 	 -28.595 	
-332 	 1532 	 -1413 	-811.965 	 -222.635 	 7.84 	
-41 	 1951 	 -1010 	-883.995 	 -263.305 	 52.85 	
240 	 2082 	 -1101 	-946.645 	 -285.74 	 97.02 	
494 	 1691 	 -900 	-1003.66 	 -286.545 	 143.22 	
853 	 696 	 -12 	-1039.08 	 -267.12 	 192.22 	
1365 	 -346 	 901 	-1038.21 	 -236.775 	 237.475 	
1950 	 -1404 	 1433 	-1006.81 	 -204.4 	 275.555 	
2070 	 -2106 	 2042 	-956.34 	 -170.135 	 300.265 	
1542 	 -2421 	 2803 	-885.64 	 -144.655 	 309.295 	
1052 	 -2752 	 3325 	-794.745 	 -137.375 	 315.21 	
1192 	 -2714 	 3573 	-696.5 	 -147.7 	 317.17 	
1658 	 -2535 	 4441 	-590.94 	 -158.095 	 305.305 	
1917 	 -2119 	 5091 	-464.625 	 -164.5 	 279.615 	
1885 	 -1658 	 5211 	-329.035 	 -164.99 	 249.83 	
1963 	 -1314 	 4982 	-202.685 	 -161.98 	 219.73 	
1956 	 -1008 	 5098 	-87.99 	 -152.53 	 183.4 	
1950 	 -698 	 5241 	23.1 	 -139.79 	 140.945 	
1910 	 -246 	 4836 	128.73 	 -116.76 	 95.48 	
1830 	 127 	 4172 	218.155 	 -81.025 	 50.435 	
1655 	 431 	 3716 	290.745 	 -34.755 	 5.88 	
1340 	 776 	 3306 	353.395 	 13.65 	 -37.45 	
909 	 1105 	 2732 	407.05 	 58.03 	 -75.495 	
540 	 1278 	 2082 	448.105 	 92.05 	 -106.33 	
269 	 1331 	 1557 	476.07 	 111.79 	 -133.035 	
61 	 1301 	 1153 	494.725 	 119.42 	 -156.345 	
-85 	 1296 	 735 	506.975 	 120.715 	 -175.455 	
-94 	 1235 	 288 	512.61 	 120.75 	 -189.35 	
-8 	 1134 	 -83 	512.225 	 124.005 	 -199.255 	
75 	 1042 	 -355 	508.27 	 131.53 	 -206.185 	
56 	 1092 	 -624 	501.76 	 142.24 	 -209.16 	
94 	 1073 	 -786 	491.89 	 153.475 	 -206.185 	
99 	 1048 	 -902 	479.745 	 163.275 	 -200.41 	
29 	 1005 	 -942 	466.55 	 170.03 	 -192.43 	
-33 	 982 	 -980 	451.395 	 171.22 	 -181.195 	
-174 	 906 	 -1017 	434.63 	 166.25 	 -169.015 	
-211 	 881 	 -1119 	416.64 	 154.385 	 -155.995 	
-289 	 795 	 -1095 	396.97 	 139.23 	 -141.82 	
-248 	 804 	 -1106 	378.315 	 120.785 	 -127.505 	
-241 	 752 	 -1082 	360.36 	 103.705 	 -114.275 	
-226 	 752 	 -1169 	341.915 	 88.235 	 -101.675 	
-210 	 707 	 -1258 	323.19 	 76.405 	 -89.355 	
-233 	 583 	 -1277 	305.515 	 69.125 	 -78.19 	
-207 	 517 	 -1362 	289.415 	 65.695 	 -66.885 	
-166 	 467 	 -1403 	273.77 	 67.13 	 -57.085 	
-162 	 487 	 -1384 	259.14 	 72.345 	 -48.475 	
-163 	 491 	 -1332 	244.51 	 79.835 	 -40.74 	
-139 	 505 	 -1306 	231.455 	 86.835 	 -32.06 	
-172 	 544 	 -1203 	218.855 	 92.085 	 -24.15 	
-243 	 563 	 -1154 	207.06 	 92.12 	 -18.095 	
-328 	 578 	 -1120 	195.23 	 86.94 	 -11.655 	
-352 	 546 	 -1053 	182.98 	 76.65 	 -5.32 	
-335 	 540 	 -1009 	172.375 	 62.545 	 0.105 	
-349 	 558 	 -971 	161.98 	 46.445 	 4.2 	
-365 	 554 	 -945 	151.725 	 29.54 	 7.175 	
-373 	 628 	 -960 	142.485 	 13.16 	 10.78 	
-322 	 625 	 -959 	133 	 -1.085 	 14.385 	
-242 	 594 	 -953 	124.11 	 -12.88 	 16.555 	
-225 	 593 	 -956 	116.48 	 -21.315 	 17.535 	
-224 	 595 	 -980 	109.305 	 -26.46 	 19.075 	
-201 	 557 	 -974 	102.13 	 -28.98 	 20.755 	
-147 	 514 	 -1010 	95.935 	 -29.33 	 21.42 	
-162 	 497 	 -1013 	90.09 	 -26.985 	 21.35 	
-170 	 505 	 -963 	84.84 	 -22.225 	 21.875 	
-92 	 508 	 -975 	80.5 	 -15.68 	 22.505 	
-68 	 522 	 -982 	76.615 	 -7.49 	 22.19 	
-88 	 524 	 -944 	72.73 	 1.295 	 21.63 	
-93 	 520 	 -903 	69.545 	 9.24 	 21.7 	
-82 	 519 	 -893 	67.165 	 15.47 	 21.735 	
-102 	 519 	 -877 	64.715 	 19.81 	 21.175 	
-122 	 504 	 -834 	61.845 	 21.84 	 20.825 	
-118 	 488 	 -785 	60.13 	 21.91 	 20.825 	
-110 	 493 	 -784 	59.29 	 20.825 	 20.335 	
-121 	 489 	 -795 	58.1 	 18.62 	 19.425 	
-143 	 482 	 -772 	56.77 	 15.365 	 18.55 	
-164 	 461 	 -744 	56.385 	 11.55 	 17.885 	
-156 	 450 	 -759 	56.315 	 7.315 	 17.22 	
-144 	 438 	 -765 	55.93 	 3.395 	 16.1 	
-160 	 422 	 -745 	55.86 	 0.245 	 14.525 	
-174 	 416 	 -751 	56.35 	 -2.38 	 13.16 	
-168 	 398 	 -765 	56.945 	 -4.305 	 11.795 	
-171 	 356 	 -756 	57.4 	 -5.005 	 9.975 	
-197 	 267 	 -753 	58.205 	 -5.285 	 8.015 	
-249 	 118 	 -775 	59.36 	 -5.95 	 6.02 	
-349 	 -130 	 -777 	59.92 	 -7.875 	 3.395 	
-549 	 -460 	 -767 	59.745 	 -13.23 	 -0.84 	
-910 	 -977 	 -739 	57.4 	 -24.675 	 -6.685 	
-1417 	 -1849 	 -892 	50.995 	 -45.605 	 -14.245 	
-1846 	 -3125 	 -1518 	42.63 	 -82.39 	 -22.82 	
-1790 	 -4065 	 -2932 	38.08 	 -134.925 	 -30.1 	
-1629 	 -3776 	 -4088 	28.35 	 -180.95 	 -39.27 	
-1169 	 -3028 	 -4548 	-7.28 	 -205.17 	 -43.96 	
-186 	 -2718 	 -4075 	-55.545 	 -183.365 	 -38.885 	
416 	 -2099 	 -4114 	-97.09 	 -116.445 	 -44.17 	
-205 	 -1319 	 -4351 	-151.445 	 -29.96 	 -63.56 	
-1556 	 -1091 	 -4089 	-227.465 	 35.105 	 -72.59 	
-2122 	 -885 	 -3805 	-310.17 	 49.525 	 -60.445 	
-1542 	 -668 	 -3928 	-400.05 	 15.645 	 -42.315 	
-771 	 -555 	 -3799 	-499.59 	 -42.63 	 -32.725 	
-611 	 -216 	 -3429 	-596.995 	 -109.27 	 -24.185 	
-792 	 353 	 -2968 	-690.97 	 -180.95 	 -1.295 	
-793 	 852 	 -2277 	-785.19 	 -256.025 	 37.765 	
-411 	 1167 	 -1448 	-870.695 	 -331.975 	 86.415 	
-124 	 1593 	 -995 	-941.43 	 -401.485 	 135.345 	
-148 	 1968 	 -645 	-1000.06 	 -456.54 	 188.335 	
-117 	 2063 	 -192 	-1042.27 	 -490.665 	 253.05 	
457 	 1594 	 283 	-1059.94 	 -496.86 	 322.455 	
1489 	 330 	 785 	-1049.06 	 -472.115 	 384.545 	
2824 	 -1243 	 1260 	-1007.23 	 -406.455 	 438.515 	
4172 	 -2365 	 1213 	-947.415 	 -293.335 	 468.405 	
3761 	 -2696 	 1568 	-876.225 	 -138.355 	 456.19 	
2610 	 -2820 	 2496 	-795.76 	 9.38 	 431.795 	
2288 	 -3025 	 3743 	-702.205 	 111.02 	 408.17 	
2205 	 -3149 	 4699 	-589.05 	 147.595 	 362.355 	
1675 	 -2605 	 4685 	-468.895 	 123.97 	 304.325 	
1417 	 -1880 	 5286 	-357.455 	 64.96 	 260.33 	
1906 	 -1567 	 6157 	-233.1 	 -13.125 	 222.705 	
2089 	 -1017 	 5912 	-95.445 	 -86.31 	 175.035 	
1932 	 -578 	 4920 	23.415 	 -139.37 	 124.005 	
1871 	 -428 	 4600 	116.97 	 -160.02 	 76.79 	
2039 	 -227 	 4433 	204.785 	 -143.99 	 29.015 	
2062 	 151 	 3582 	288.085 	 -93.59 	 -23.8 	
1643 	 551 	 2746 	352.555 	 -24.885 	 -77.455 	
1043 	 813 	 2458 	399.315 	 41.3 	 -123.13 	
500 	 988 	 2339 	440.65 	 90.055 	 -158.69 	
168 	 1124 	 1833 	476.035 	 111.72 	 -186.34 	
-59 	 1189 	 1195 	497.945 	 110.425 	 -211.295 	
-278 	 1149 	 914 	507.78 	 98.175 	 -231.595 	
-229 	 1036 	 692 	514.64 	 84.07 	 -245.105 	
-136 	 1012 	 186 	520.94 	 79.59 	 -255.22 	
45 	 1031 	 -334 	519.4 	 87.815 	 -260.82 	
158 	 986 	 -518 	511.175 	 109.655 	 -262.675 	
243 	 928 	 -577 	504.28 	 140.595 	 -260.085 	
268 	 931 	 -797 	498.365 	 175.77 	 -252.525 	
209 	 1041 	 -926 	489.23 	 210 	 -241.395 	
253 	 919 	 -878 	477.19 	 238.875 	 -225.26 	
-21 	 927 	 -889 	467.74 	 259.7 	 -210.14 	
-137 	 962 	 -1025 	457.555 	 268.31 	 -190.47 	
-114 	 889 	 -913 	442.54 	 265.16 	 -167.93 	
-145 	 765 	 -711 	428.54 	 252.42 	 -148.47 	
-273 	 773 	 -726 	419.055 	 231.525 	 -130.865 	
-363 	 811 	 -830 	407.015 	 204.225 	 -112.385 	
-324 	 718 	 -772 	391.825 	 172.375 	 -93.625 	
-335 	 631 	 -712 	378.945 	 139.3 	 -78.155 	
-354 	 576 	 -799 	368.095 	 106.505 	 -64.785 	
-344 	 463 	 -939 	354.655 	 76.72 	 -52.15 	
-344 	 329 	 -969 	341.495 	 51.905 	 -42.49 	
-302 	 311 	 -1135 	331.73 	 34.125 	 -35.35 	
-301 	 387 	 -1235 	318.325 	 27.125 	 -26.53 	
-28 	 411 	 -1074 	303.765 	 29.12 	 -17.885 	
74 	 499 	 -1152 	294.77 	 41.265 	 -14.91 	
-190 	 654 	 -1393 	284.935 	 59.535 	 -12.67 	
-267 	 632 	 -1368 	270.095 	 76.51 	 -4.725 	
-126 	 470 	 -1183 	256.935 	 89.53 	 2.905 	
-148 	 409 	 -1195 	248.22 	 98.595 	 4.725 	
-268 	 467 	 -1307 	238.42 	 103.04 	 7.105 	
-326 	 441 	 -1211 	225.925 	 102.9 	 12.285 	
-263 	 359 	 -1102 	216.16 	 98.035 	 17.64 	
-228 	 351 	 -1135 	208.6 	 90.195 	 20.3 	
-272 	 374 	 -1153 	199.71 	 80.255 	 22.225 	
-313 	 346 	 -1070 	190.61 	 68.145 	 25.095 	
-301 	 306 	 -1042 	183.995 	 53.62 	 28.28 	
-305 	 280 	 -1139 	178.815 	 36.015 	 29.995 	
-325 	 253 	 -1087 	170.835 	 18.62 	 31.395 	
-238 	 201 	 -966 	160.93 	 1.54 	 33.32 	
-182 	 220 	 -869 	155.925 	 -11.76 	 34.16 	
-163 	 358 	 -1069 	153.37 	 -21.525 	 33.6 	
-263 	 471 	 -1141 	145.005 	 -27.02 	 33.845 	
-144 	 320 	 -966 	135.1 	 -32.375 	 36.33 	
-133 	 276 	 -906 	130.27 	 -34.335 	 36.19 	
-163 	 343 	 -1042 	125.86 	 -34.965 	 34.93 	
-179 	 369 	 -1106 	117.775 	 -33.39 	 35 	
-138 	 301 	 -1028 	109.795 	 -30.345 	 35.665 	
-117 	 244 	 -1014 	104.86 	 -25.76 	 35.35 	
-113 	 244 	 -1124 	99.61 	 -20.51 	 34.44 	
-130 	 203 	 -1129 	92.015 	 -14.945 	 33.775 	
-151 	 121 	 -1071 	85.4 	 -9.625 	 32.97 	
-159 	 98 	 -1111 	80.885 	 -4.375 	 31.745 	
-174 	 109 	 -1187 	75.565 	 1.085 	 30.485 	
-213 	 54 	 -1155 	68.215 	 6.72 	 29.12 	
-260 	 -109 	 -1061 	60.27 	 11.305 	 27.475 	
-349 	 -340 	 -1019 	52.08 	 13.65 	 24.535 	
-584 	 -698 	 -1039 	42.315 	 12.04 	 18.69 	
-897 	 -1275 	 -1220 	31.22 	 5.215 	 11.06 	
-1178 	 -1986 	 -1526 	19.46 	 -5.215 	 3.045 	
-1244 	 -2675 	 -2066 	4.06 	 -16.31 	 -6.825 	
-1205 	 -3186 	 -2587 	-19.25 	 -22.435 	 -19.705 	
-943 	 -3512 	 -3032 	-48.055 	 -21.35 	 -31.78 	
-536 	 -3430 	 -3630 	-81.305 	 -11.27 	 -43.68 	
-364 	 -3147 	 -3960 	-123.935 	 6.72 	 -57.295 	
-452 	 -2854 	 -3758 	-177.975 	 24.395 	 -72.135 	
-675 	 -2405 	 -3615 	-238.56 	 27.37 	 -86.345 	
-917 	 -2043 	 -3544 	-309.155 	 5.6 	 -97.755 	
-959 	 -1741 	 -3511 	-386.995 	 -38.71 	 -103.425 	
-696 	 -1242 	 -3779 	-472.325 	 -93.205 	 -102.095 	
-290 	 -738 	 -3886 	-567.14 	 -141.155 	 -94.64 	
89 	 -303 	 -3522 	-664.23 	 -174.545 	 -81.76 	
216 	 192 	 -2927 	-755.65 	 -197.61 	 -64.505 	
98 	 731 	 -2333 	-841.89 	 -221.2 	 -41.965 	
-135 	 1361 	 -1429 	-923.09 	 -249.865 	 -11.375 	
-265 	 2152 	 -447 	-992.705 	 -283.64 	 27.37 	
-216 	 2623 	 -81 	-1044.58 	 -316.995 	 73.255 	
187 	 2264 	 -277 	-1084.55 	 -343.14 	 124.39 	
793 	 749 	 339 	-1108.77 	 -354.375 	 176.61 	
1605 	 -944 	 1344 	-1090.88 	 -348.04 	 225.12 	
2291 	 -1785 	 1426 	-1035.48 	 -314.755 	 267.225 	
2309 	 -2028 	 1485 	-977.48 	 -252.105 	 293.405 	
1876 	 -2828 	 2540 	-906.185 	 -163.52 	 302.715 	
1661 	 -3043 	 3061 	-807.03 	 -69.685 	 302.68 	
1854 	 -2985 	 2948 	-704.41 	 4.06 	 290.78 	
1554 	 -2794 	 3792 	-604.17 	 49.315 	 257.04 	
867 	 -2189 	 4916 	-493.29 	 48.65 	 220.29 	
527 	 -1351 	 5868 	-367.92 	 3.29 	 197.47 	
825 	 -857 	 6093 	-233.03 	 -65.8 	 179.62 	
1187 	 -528 	 5278 	-105.77 	 -136.465 	 153.09 	
1147 	 -236 	 4654 	-3.92 	 -179.375 	 119.98 	
1248 	 -30 	 4584 	84.245 	 -183.505 	 89.32 	
1504 	 223 	 4258 	173.18 	 -148.505 	 57.645 	
1593 	 556 	 3313 	252.035 	 -86.975 	 19.425 	
1184 	 848 	 2711 	308.7 	 -16.8 	 -21.105 	
569 	 1051 	 2620 	353.395 	 42.105 	 -53.935 	
213 	 1248 	 2338 	396.97 	 81.375 	 -76.195 	
176 	 1368 	 1720 	433.16 	 99.645 	 -93.905 	
129 	 1368 	 1204 	455.84 	 101.57 	 -113.89 	
-126 	 1331 	 994 	469.91 	 95.41 	 -132.335 	
-194 	 1267 	 747 	481.425 	 85.225 	 -141.68 	
-21 	 1168 	 325 	488.95 	 74.34 	 -146.545 	
110 	 1090 	 -29 	490.315 	 66.815 	 -153.055 	
150 	 1016 	 -169 	488.005 	 63.21 	 -157.92 	
112 	 994 	 -249 	484.68 	 63.315 	 -158.445 	
152 	 1019 	 -479 	480.76 	 65.835 	 -154.42 	
267 	 989 	 -682 	473.375 	 70.735 	 -148.855 	
230 	 896 	 -711 	463.05 	 78.575 	 -143.78 	
106 	 874 	 -779 	453.18 	 87.36 	 -136.5 	
85 	 879 	 -931 	443.24 	 97.055 	 -125.79 	
127 	 883 	 -1021 	431.13 	 107.17 	 -115.22 	
85 	 868 	 -938 	418.25 	 118.02 	 -105.77 	
-7 	 915 	 -1046 	406.35 	 127.085 	 -93.835 	
-10 	 887 	 -1134 	393.155 	 132.265 	 -80.71 	
-30 	 865 	 -1075 	378.455 	 133.455 	 -69.895 	
-136 	 807 	 -1027 	365.68 	 130.48 	 -59.395 	
-204 	 802 	 -1099 	352.905 	 122.885 	 -47.635 	
-204 	 768 	 -1109 	337.575 	 111.16 	 -36.75 	
-187 	 746 	 -1039 	323.015 	 97.125 	 -27.615 	
-252 	 754 	 -1032 	310.065 	 81.865 	 -20.79 	
-290 	 771 	 -1131 	297.01 	 65.415 	 -12.985 	
-234 	 733 	 -1153 	282.31 	 48.79 	 -4.865 	
-202 	 679 	 -1105 	268.66 	 32.725 	 0.49 	
-240 	 645 	 -1124 	256.34 	 17.745 	 4.165 	
-247 	 651 	 -1199 	244.195 	 3.71 	 8.785 	
-249 	 612 	 -1200 	230.965 	 -7.98 	 12.845 	
-256 	 549 	 -1200 	218.715 	 -17.85 	 15.61 	
-255 	 494 	 -1237 	207.585 	 -24.955 	 17.78 	
-257 	 468 	 -1252 	196.49 	 -28.77 	 19.005 	
-236 	 458 	 -1289 	186.2 	 -29.68 	 19.565 	
-266 	 443 	 -1268 	175.455 	 -25.655 	 20.615 	
-193 	 459 	 -1229 	164.43 	 -19.145 	 21.98 	
-144 	 498 	 -1209 	155.12 	 -8.435 	 22.82 	
-125 	 555 	 -1225 	145.95 	 4.41 	 22.995 	
-154 	 522 	 -1188 	135.45 	 17.885 	 23.135 	
-152 	 514 	 -1135 	125.965 	 29.96 	 24.85 	
-174 	 502 	 -1065 	116.865 	 39.48 	 26.32 	
-200 	 497 	 -1040 	108.57 	 44.625 	 27.055 	
-237 	 490 	 -1037 	100.31 	 45.395 	 27.895 	
-262 	 475 	 -979 	92.155 	 42.63 	 29.435 	
-250 	 457 	 -924 	84.805 	 36.4 	 30.94 	
-248 	 447 	 -895 	78.155 	 28.035 	 31.78 	
-238 	 445 	 -901 	71.82 	 18.305 	 32.515 	
-239 	 425 	 -883 	65.485 	 8.435 	 33.6 	
-188 	 386 	 -870 	59.815 	 -1.75 	 34.475 	
-174 	 369 	 -878 	54.74 	 -10.92 	 34.685 	
-179 	 361 	 -880 	49.945 	 -19.285 	 35.07 	
-156 	 344 	 -863 	45.43 	 -26.53 	 35.595 	
-136 	 327 	 -859 	41.79 	 -32.585 	 35.56 	
-140 	 316 	 -869 	38.43 	 -37.205 	 35.14 	
-141 	 305 	 -866 	35.14 	 -40.775 	 34.825 	
-132 	 292 	 -850 	32.34 	 -43.155 	 34.3 	
-136 	 286 	 -847 	30.205 	 -44.415 	 33.215 	
-152 	 280 	 -864 	28.21 	 -44.38 	 31.675 	
-163 	 261 	 -879 	26.425 	 -43.26 	 30.415 	
-146 	 229 	 -890 	25.095 	 -41.02 	 29.05 	
-122 	 208 	 -901 	24.185 	 -37.625 	 27.125 	
-116 	 202 	 -904 	23.66 	 -32.865 	 24.885 	
-124 	 188 	 -896 	23.31 	 -26.845 	 22.82 	
-139 	 154 	 -892 	23.1 	 -20.16 	 20.755 	
-168 	 65 	 -876 	22.785 	 -13.93 	 18.69 	
-231 	 -107 	 -828 	21.84 	 -9.31 	 15.995 	
-362 	 -405 	 -765 	20.615 	 -8.155 	 11.9 	
-668 	 -889 	 -750 	19.285 	 -11.935 	 5.6 	
-1127 	 -1705 	 -970 	15.47 	 -22.68 	 -3.43 	
-1699 	 -2923 	 -1230 	5.355 	 -42.105 	 -16.555 	
-2176 	 -4115 	 -1902 	-7.7 	 -75.635 	 -35.175 	
-2213 	 -4329 	 -3236 	-11.865 	 -116.725 	 -54.81 	
-1943 	 -3667 	 -4147 	-25.025 	 -139.965 	 -70.385 	
-1094 	 -3123 	 -4221 	-69.3 	 -129.745 	 -77.805 	
258 	 -2697 	 -3867 	-120.61 	 -71.96 	 -84.28 	
612 	 -1885 	 -3792 	-163.94 	 25.025 	 -106.645 	
-315 	 -1115 	 -4122 	-221.585 	 108.99 	 -135.38 	
-1689 	 -780 	 -3594 	-304.045 	 139.23 	 -148.68 	
-1862 	 -501 	 -3007 	-390.005 	 96.88 	 -138.705 	
-976 	 152 	 -3008 	-477.155 	 11.095 	 -125.44 	
-3 	 736 	 -2753 	-573.895 	 -75.775 	 -117.915 	
370 	 1378 	 -2221 	-663.775 	 -136.08 	 -106.785 	
414 	 2189 	 -2021 	-744.94 	 -171.08 	 -82.53 	
377 	 2783 	 -1437 	-830.025 	 -191.415 	 -49.21 	
266 	 3153 	 -409 	-906.64 	 -212.065 	 -13.09 	
325 	 3241 	 -34 	-961.24 	 -241.185 	 29.96 	
891 	 2494 	 -120 	-998.69 	 -269.745 	 80.57 	
1540 	 873 	 641 	-1013.29 	 -289.625 	 126.56 	
1886 	 -571 	 1276 	-985.145 	 -292.355 	 165.76 	
1859 	 -1241 	 1081 	-934.185 	 -272.965 	 203.385 	
2100 	 -1757 	 1323 	-885.675 	 -228.2 	 238 	
2004 	 -2502 	 2823 	-817.775 	 -154.385 	 246.33 	
1655 	 -2596 	 3498 	-715.82 	 -75.88 	 236.985 	
1565 	 -2219 	 3236 	-608.51 	 -10.92 	 224.7 	
1494 	 -2127 	 3886 	-510.3 	 29.47 	 202.755 	
1113 	 -1863 	 5140 	-401.415 	 36.505 	 171.71 	
552 	 -1118 	 5711 	-275.065 	 9.135 	 144.515 	
563 	 -662 	 5322 	-149.625 	 -38.29 	 125.02 	
936 	 -362 	 4720 	-41.685 	 -80.22 	 101.815 	
1082 	 -56 	 4618 	51.975 	 -99.4 	 70.49 	
958 	 310 	 4506 	142.38 	 -90.72 	 37.31 	
821 	 600 	 3881 	227.08 	 -57.925 	 7 	
730 	 831 	 3076 	295.225 	 -15.47 	 -23.485 	
420 	 1081 	 2733 	348.67 	 27.86 	 -55.755 	
95 	 1337 	 2357 	394.345 	 59.08 	 -81.725 	
-157 	 1468 	 1905 	433.685 	 77.945 	 -100.66 	
-135 	 1439 	 1321 	461.37 	 83.58 	 -116.2 	
-180 	 1393 	 937 	478.03 	 84.875 	 -133.14 	
-273 	 1400 	 645 	489.37 	 85.995 	 -146.335 	
-193 	 1359 	 317 	497.595 	 89.005 	 -152.18 	
-28 	 1264 	 -41 	500.64 	 93.485 	 -155.015 	
35 	 1153 	 -305 	498.575 	 98.175 	 -157.395 	
-48 	 1171 	 -432 	494.13 	 99.785 	 -157.115 	
-57 	 1077 	 -476 	487.585 	 97.475 	 -150.71 	
-31 	 993 	 -553 	479.745 	 91.84 	 -143.15 	
-98 	 1004 	 -698 	470.82 	 86.45 	 -136.5 	
-134 	 934 	 -799 	459.305 	 81.62 	 -127.4 	
-157 	 888 	 -849 	446.04 	 78.05 	 -117.215 	
-165 	 849 	 -921 	433.475 	 75.915 	 -107.17 	
-216 	 800 	 -1104 	420.98 	 74.515 	 -96.985 	
-191 	 697 	 -1192 	406.665 	 73.815 	 -86.59 	
-203 	 613 	 -1159 	392.385 	 74.41 	 -77.07 	
-248 	 591 	 -1201 	380.415 	 76.195 	 -67.34 	
-233 	 590 	 -1289 	368.13 	 78.61 	 -57.05 	
-215 	 501 	 -1293 	353.64 	 81.725 	 -47.775 	
-237 	 423 	 -1252 	339.815 	 84.665 	 -40.11 	
-261 	 413 	 -1275 	328.37 	 86.38 	 -32.41 	
-268 	 434 	 -1317 	316.435 	 86.485 	 -24.675 	
-257 	 430 	 -1277 	303.205 	 84.455 	 -17.955 	
-301 	 395 	 -1214 	291.48 	 80.185 	 -12.425 	
-335 	 388 	 -1216 	280.175 	 73.535 	 -6.79 	
-327 	 375 	 -1229 	267.785 	 63.77 	 -1.575 	
-315 	 335 	 -1187 	255.5 	 52.045 	 2.31 	
-336 	 315 	 -1170 	244.615 	 39.13 	 4.725 	
-342 	 305 	 -1188 	233.73 	 26.11 	 7.07 	
-315 	 275 	 -1215 	222.355 	 13.965 	 9.24 	
-339 	 286 	 -1243 	211.05 	 3.57 	 10.605 	
-290 	 275 	 -1240 	200.235 	 -4.62 	 12.355 	
-180 	 256 	 -1241 	189.875 	 -10.22 	 13.405 	
-159 	 270 	 -1242 	180.04 	 -12.145 	 12.88 	
-200 	 300 	 -1242 	170.135 	 -11.2 	 13.055 	
-193 	 298 	 -1233 	160.405 	 -8.68 	 14.49 	
-146 	 274 	 -1219 	151.06 	 -4.935 	 15.68 	
-145 	 261 	 -1208 	141.89 	 -0.455 	 15.715 	
-175 	 267 	 -1177 	133.14 	 4.06 	 15.96 	
-174 	 265 	 -1143 	125.125 	 8.47 	 16.975 	
-143 	 258 	 -1121 	117.425 	 12.635 	 17.85 	
-147 	 246 	 -1089 	109.97 	 16.52 	 18.025 	
-179 	 241 	 -1055 	103.32 	 18.935 	 18.165 	
-196 	 240 	 -1049 	97.615 	 19.635 	 18.585 	
-197 	 228 	 -1019 	91.21 	 19.67 	 19.67 	
-134 	 193 	 -965 	84.385 	 18.41 	 20.475 	
-130 	 191 	 -927 	79.73 	 17.325 	 19.985 	
-162 	 218 	 -970 	75.985 	 15.89 	 19.775 	
-173 	 215 	 -975 	70.805 	 13.23 	 20.58 	
-160 	 168 	 -907 	65.905 	 9.765 	 20.79 	
-190 	 140 	 -880 	62.755 	 5.67 	 20.09 	
-226 	 131 	 -893 	59.64 	 0.56 	 19.635 	
-247 	 66 	 -858 	55.58 	 -5.145 	 19.32 	
-294 	 -71 	 -812 	51.975 	 -11.515 	 17.99 	
-395 	 -277 	 -823 	48.79 	 -19.075 	 15.575 	
-531 	 -547 	 -896 	44.555 	 -27.51 	 12.635 	
-684 	 -870 	 -973 	39.305 	 -36.68 	 8.295 	
-840 	 -1198 	 -1033 	33.285 	 -45.045 	 2.24 	
-1099 	 -1722 	 -1094 	22.645 	 -51.275 	 -6.335 	
-1436 	 -2656 	 -1375 	5.075 	 -57.96 	 -18.515 	
-1569 	 -3400 	 -2156 	-11.025 	 -64.085 	 -33.495 	
-1626 	 -3589 	 -3207 	-26.39 	 -59.885 	 -48.02 	
-1301 	 -3520 	 -4190 	-59.71 	 -44.275 	 -55.475 	
-298 	 -3580 	 -4349 	-107.485 	 -10.395 	 -53.97 	
517 	 -3385 	 -4113 	-150.78 	 33.495 	 -63.07 	
49 	 -2452 	 -4253 	-202.79 	 62.09 	 -90.195 	
-1496 	 -1728 	 -3521 	-276.465 	 48.72 	 -110.81 	
-2174 	 -1315 	 -2924 	-355.425 	 -23.1 	 -105.665 	
-1626 	 -820 	 -3292 	-435.015 	 -116.655 	 -89.005 	
-536 	 -518 	 -3981 	-527.345 	 -186.48 	 -76.895 	
94 	 -302 	 -4009 	-624.085 	 -205.03 	 -69.195 	
48 	 159 	 -3496 	-715.26 	 -188.825 	 -56.14 	
-261 	 642 	 -2705 	-801.36 	 -171.36 	 -35.14 	
-479 	 1171 	 -1578 	-878.78 	 -174.265 	 -8.645 	
-394 	 1602 	 -909 	-942.55 	 -202.055 	 21.455 	
-40 	 1791 	 -911 	-993.125 	 -238.77 	 55.93 	
385 	 1561 	 -439 	-1035.65 	 -265.51 	 94.045 	
726 	 795 	 923 	-1055.85 	 -280.35 	 132.02 	
1148 	 -94 	 1709 	-1031.56 	 -281.89 	 169.015 	
1634 	 -894 	 1268 	-983.15 	 -262.885 	 204.785 	
2091 	 -1644 	 1331 	-937.37 	 -214.62 	 232.61 	
2130 	 -2412 	 2599 	-873.04 	 -136.255 	 239.89 	
1597 	 -2684 	 3328 	-774.97 	 -52.29 	 225.225 	
1331 	 -2288 	 3288 	-668.71 	 13.335 	 210.98 	
1428 	 -2278 	 4122 	-567.63 	 49.35 	 192.08 	
1284 	 -2025 	 5227 	-455.56 	 51.765 	 161.77 	
703 	 -1353 	 5736 	-331.73 	 25.27 	 135.905 	
792 	 -888 	 5694 	-208.915 	 -20.335 	 122.57 	
1345 	 -553 	 5512 	-93.38 	 -64.12 	 107.205 	
1520 	 -104 	 5172 	9.345 	 -99.54 	 82.985 	
1095 	 205 	 5258 	101.5 	 -117.25 	 56.595 	
921 	 531 	 4835 	188.405 	 -122.325 	 36.505 	
950 	 778 	 3936 	262.465 	 -112.7 	 16.835 	
822 	 1017 	 3144 	317.24 	 -89.11 	 -8.225 	
496 	 1244 	 2659 	359.8 	 -57.295 	 -33.635 	
203 	 1445 	 2050 	396.795 	 -23.8 	 -52.955 	
2 	 1535 	 1316 	424.165 	 6.895 	 -67.795 	
-138 	 1466 	 792 	438.27 	 30.87 	 -82.565 	
-364 	 1432 	 509 	445.025 	 50.295 	 -97.055 	
-499 	 1501 	 217 	450.1 	 66.605 	 -105.77 	
-290 	 1442 	 -180 	450.835 	 82.04 	 -108.57 	
-179 	 1325 	 -492 	445.935 	 100.065 	 -113.155 	
-222 	 1230 	 -721 	438.76 	 119.56 	 -117.705 	
-316 	 1170 	 -806 	430.465 	 138.775 	 -116.34 	
-283 	 1090 	 -928 	420.63 	 154.07 	 -110.635 	
-232 	 1007 	 -979 	408.38 	 164.885 	 -104.195 	
-243 	 946 	 -949 	394.765 	 169.05 	 -97.825 	
-339 	 933 	 -936 	382.865 	 166.04 	 -89.74 	
-360 	 932 	 -962 	370.09 	 155.89 	 -78.75 	
-310 	 891 	 -962 	355.075 	 139.335 	 -67.41 	
-289 	 837 	 -950 	340.55 	 118.79 	 -57.505 	
-305 	 769 	 -955 	326.935 	 95.585 	 -48.02 	
-316 	 748 	 -967 	312.795 	 70.77 	 -37.87 	
-282 	 709 	 -962 	298.025 	 46.06 	 -27.3 	
-260 	 629 	 -993 	284.165 	 23.45 	 -17.955 	
-241 	 570 	 -1082 	270.27 	 4.83 	 -10.185 	
-222 	 566 	 -1119 	255.85 	 -7.14 	 -3.465 	
-179 	 596 	 -1096 	242.83 	 -11.41 	 3.29 	
-86 	 643 	 -1135 	231 	 -8.785 	 9.8 	
-47 	 667 	 -1170 	218.75 	 -0.28 	 15.26 	
-50 	 667 	 -1126 	206.43 	 10.885 	 20.44 	
-93 	 667 	 -1099 	195.335 	 21.7 	 25.55 	
-140 	 664 	 -1083 	184.45 	 29.33 	 30.555 	
-168 	 635 	 -1034 	174.02 	 32.27 	 35.14 	
-208 	 595 	 -961 	164.115 	 31.115 	 38.71 	
-249 	 568 	 -915 	155.505 	 26.355 	 41.825 	
-265 	 545 	 -891 	147.525 	 18.515 	 44.52 	
-276 	 512 	 -862 	139.895 	 9.205 	 46.55 	
-265 	 478 	 -847 	133.49 	 -0.84 	 48.16 	
-259 	 454 	 -852 	127.715 	 -10.29 	 49.105 	
-242 	 433 	 -863 	122.185 	 -18.69 	 49.735 	
-218 	 411 	 -858 	117.145 	 -25.375 	 49.84 	
-199 	 392 	 -848 	112.84 	 -30.03 	 49.525 	
-199 	 381 	 -854 	109.025 	 -32.41 	 48.72 	
-187 	 384 	 -880 	105.49 	 -33.11 	 47.775 	
-190 	 369 	 -874 	101.71 	 -31.255 	 46.515 	
-171 	 365 	 -854 	98.56 	 -27.475 	 45.115 	
-139 	 382 	 -874 	95.795 	 -21.595 	 43.575 	
-132 	 407 	 -878 	92.75 	 -13.79 	 41.685 	
-128 	 415 	 -859 	89.67 	 -4.83 	 39.725 	
-119 	 419 	 -859 	87.185 	 4.55 	 38.045 	
-99 	 419 	 -869 	84.875 	 13.825 	 36.4 	
-99 	 421 	 -863 	82.215 	 22.085 	 34.44 	
-126 	 417 	 -838 	80.045 	 29.26 	 32.445 	
-121 	 416 	 -824 	78.155 	 34.23 	 31.045 	
-117 	 409 	 -806 	76.475 	 37.625 	 29.47 	
-142 	 411 	 -801 	75.215 	 39.13 	 27.44 	
-170 	 406 	 -794 	74.06 	 38.64 	 25.585 	
-179 	 403 	 -775 	73.08 	 36.295 	 24.045 	
-186 	 405 	 -747 	72.45 	 32.55 	 22.05 	
-194 	 407 	 -745 	72.17 	 27.825 	 19.67 	
-227 	 399 	 -743 	71.855 	 22.89 	 17.325 	
-230 	 384 	 -738 	71.61 	 17.535 	 15.085 	
-218 	 362 	 -756 	71.785 	 12.67 	 12.74 	
-215 	 330 	 -784 	72.275 	 8.295 	 9.94 	
-224 	 261 	 -765 	72.38 	 4.375 	 6.93 	
-287 	 95 	 -702 	72.415 	 0.91 	 3.29 	
-477 	 -173 	 -712 	72.59 	 -3.325 	 -1.855 	
-805 	 -669 	 -777 	70.035 	 -10.08 	 -8.89 	
-1256 	 -1496 	 -863 	64.68 	 -21.77 	 -19.215 	
-1863 	 -2567 	 -1257 	60.305 	 -39.725 	 -34.44 	
-2356 	 -3543 	 -2274 	54.11 	 -66.885 	 -53.655 	
-2232 	 -3841 	 -3596 	42.77 	 -95.515 	 -69.335 	
-1466 	 -3682 	 -4330 	23.31 	 -104.51 	 -77.805 	
-265 	 -3443 	 -4663 	-11.865 	 -81.235 	 -82.74 	
567 	 -2853 	 -4624 	-55.93 	 -17.395 	 -96.25 	
168 	 -1964 	 -4265 	-106.82 	 65.625 	 -121.275 	
-1085 	 -1408 	 -3774 	-169.89 	 118.3 	 -138.32 	
-1870 	 -968 	 -3525 	-243.635 	 114.52 	 -138.25 	
-1653 	 -487 	 -3572 	-329.035 	 64.435 	 -127.435 	
-611 	 -152 	 -3721 	-425.355 	 -0.07 	 -114.555 	
355 	 308 	 -3702 	-523.95 	 -49.875 	 -104.72 	
499 	 917 	 -3287 	-622.545 	 -85.33 	 -94.85 	
103 	 1563 	 -2371 	-719.565 	 -124.81 	 -74.865 	
-110 	 2145 	 -1361 	-808.885 	 -178.01 	 -39.9 	
164 	 2612 	 -672 	-886.235 	 -239.155 	 3.5 	
505 	 2707 	 -487 	-951.44 	 -293.09 	 47.88 	
578 	 2403 	 -563 	-1003.73 	 -329.77 	 94.5 	
649 	 1544 	 -56 	-1039.57 	 -348.04 	 147.7 	
1002 	 231 	 979 	-1042.86 	 -352.065 	 201.775 	
1521 	 -974 	 1362 	-1007.34 	 -339.885 	 249.06 	
1968 	 -1696 	 1260 	-959.56 	 -306.53 	 284.97 	
1989 	 -2356 	 1901 	-903.28 	 -245.455 	 307.3 	
1748 	 -2887 	 2941 	-820.05 	 -171.01 	 311.955 	
1404 	 -2758 	 3098 	-713.615 	 -100.24 	 303.94 	
1357 	 -2665 	 2685 	-609.28 	 -53.445 	 289.835 	
1083 	 -2622 	 3815 	-512.47 	 -27.16 	 261.94 	
1124 	 -2063 	 5076 	-396.34 	 -35.735 	 232.505 	
938 	 -1292 	 5497 	-258.405 	 -68.635 	 205.275 	
1096 	 -852 	 4667 	-134.365 	 -125.195 	 181.125 	
984 	 -727 	 4654 	-34.79 	 -178.325 	 151.585 	
1101 	 -395 	 4804 	58.065 	 -213.325 	 119.84 	
1518 	 -23 	 4298 	152.005 	 -211.505 	 87.99 	
1817 	 313 	 3276 	233.135 	 -169.68 	 50.295 	
1589 	 675 	 2593 	291.585 	 -102.935 	 6.72 	
954 	 1025 	 2501 	336.42 	 -35.175 	 -32.445 	
469 	 1339 	 2260 	379.015 	 18.025 	 -59.29 	
375 	 1571 	 1618 	413 	 49.49 	 -79.87 	
340 	 1655 	 1123 	431.725 	 61.635 	 -102.55 	
95 	 1659 	 992 	442.54 	 62.44 	 -125.79 	
-163 	 1641 	 769 	452.375 	 58.415 	 -141.715 	
-138 	 1571 	 295 	457.8 	 54.11 	 -150.955 	
-23 	 1395 	 -45 	455.665 	 55.79 	 -160.58 	
-33 	 1208 	 -179 	451.22 	 64.995 	 -171.92 	
-119 	 1212 	 -367 	447.895 	 80.78 	 -178.57 	
0 	 1189 	 -562 	442.085 	 99.645 	 -178.185 	
94 	 1116 	 -652 	432.74 	 120.12 	 -177.205 	
71 	 1085 	 -686 	424.34 	 139.3 	 -175.525 	
-29 	 1080 	 -720 	415.905 	 154.84 	 -170.205 	
-106 	 1098 	 -767 	405.965 	 163.73 	 -161.28 	
-114 	 1042 	 -747 	394.73 	 165.795 	 -150.92 	
-179 	 996 	 -707 	384.02 	 162.015 	 -141.155 	
-228 	 1010 	 -770 	373.45 	 152.04 	 -130.095 	
-250 	 977 	 -799 	361.585 	 138.04 	 -118.405 	
-261 	 880 	 -787 	349.79 	 120.925 	 -107.1 	
-247 	 801 	 -826 	338.905 	 102.795 	 -96.005 	
-243 	 763 	 -881 	328.335 	 85.575 	 -85.96 	
-234 	 737 	 -911 	317.45 	 70.385 	 -76.825 	
-246 	 663 	 -905 	306.915 	 58.73 	 -68.775 	
-224 	 623 	 -981 	297.535 	 50.645 	 -60.9 	
-199 	 601 	 -1014 	287.875 	 47.53 	 -54.04 	
-162 	 599 	 -1013 	278.32 	 48.685 	 -48.02 	
-151 	 621 	 -997 	269.5 	 53.375 	 -43.05 	
-166 	 646 	 -1008 	261.345 	 60.305 	 -38.115 	
-168 	 630 	 -1016 	253.12 	 67.55 	 -33.075 	
-141 	 588 	 -1021 	245.105 	 73.395 	 -28.28 	
-154 	 546 	 -987 	237.755 	 77.805 	 -24.29 	
-193 	 538 	 -972 	231.035 	 78.855 	 -21.315 	
-238 	 546 	 -977 	224.525 	 76.58 	 -17.815 	
-247 	 525 	 -937 	217.98 	 71.12 	 -13.755 	
-258 	 505 	 -894 	212.03 	 63.14 	 -10.675 	
-283 	 508 	 -902 	206.955 	 53.41 	 -8.4 	
-289 	 498 	 -905 	201.6 	 42.21 	 -5.845 	
-280 	 477 	 -882 	196.07 	 30.695 	 -3.465 	
-267 	 462 	 -877 	190.82 	 18.9 	 -1.645 	
-246 	 456 	 -872 	185.85 	 7.665 	 0.07 	
-235 	 444 	 -850 	180.88 	 -2.625 	 1.295 	
-232 	 432 	 -844 	176.19 	 -11.655 	 2.17 	
-233 	 404 	 -871 	171.745 	 -19.04 	 3.045 	
-223 	 355 	 -910 	167.125 	 -24.71 	 3.71 	
-219 	 310 	 -934 	162.26 	 -28.42 	 3.85 	
-227 	 281 	 -955 	158.025 	 -29.96 	 3.815 	
-216 	 263 	 -1006 	154.035 	 -29.015 	 3.885 	
-195 	 232 	 -1027 	149.59 	 -25.06 	 3.85 	
-125 	 229 	 -1078 	145.11 	 -19.11 	 3.71 	
-120 	 256 	 -1051 	140.98 	 -10.535 	 3.43 	
-107 	 291 	 -1039 	136.64 	 -0.455 	 3.185 	
-105 	 318 	 -1041 	132.09 	 10.255 	 3.29 	
-111 	 316 	 -1032 	127.505 	 20.265 	 3.815 	
-137 	 289 	 -1013 	123.025 	 28.21 	 3.745 	
-159 	 255 	 -1026 	118.755 	 33.425 	 4.13 	
-212 	 232 	 -1009 	114.31 	 35.035 	 4.655 	
-248 	 205 	 -974 	110.04 	 32.41 	 5.18 	
-260 	 175 	 -951 	106.225 	 26.145 	 5.635 	
-272 	 157 	 -936 	102.27 	 17.675 	 5.985 	
-299 	 120 	 -895 	97.72 	 7.735 	 6.3 	
-342 	 29 	 -850 	93.24 	 -3.745 	 6.16 	
-424 	 -116 	 -853 	88.97 	 -16.52 	 5.355 	
-553 	 -325 	 -877 	83.125 	 -30.45 	 3.885 	
-712 	 -620 	 -928 	74.34 	 -45.605 	 1.89 	
-854 	 -1035 	 -1015 	63.7 	 -61.495 	 -0.91 	
-1038 	 -1561 	 -1160 	50.015 	 -76.86 	 -5.53 	
-1216 	 -2331 	 -1571 	33.04 	 -93.135 	 -11.2 	
-1311 	 -3299 	 -2277 	16.24 	 -108.325 	 -18.48 	
-1246 	 -3975 	 -3297 	-4.27 	 -117.075 	 -27.055 	
-841 	 -4084 	 -4139 	-34.16 	 -108.045 	 -32.165 	
-407 	 -3892 	 -4365 	-74.13 	 -73.5 	 -36.435 	
-119 	 -3546 	 -4352 	-125.405 	 -22.925 	 -45.71 	
-413 	 -2957 	 -3952 	-184.135 	 26.215 	 -59.395 	
-986 	 -2476 	 -3546 	-247.765 	 44.135 	 -70.875 	
-1431 	 -1816 	 -3436 	-321.44 	 20.93 	 -76.23 	
-1252 	 -1325 	 -3496 	-406.735 	 -29.4 	 -70.49 	
-449 	 -978 	 -3641 	-497.035 	 -81.655 	 -59.745 	
164 	 -566 	 -3741 	-588.84 	 -117.005 	 -53.27 	
157 	 -61 	 -3451 	-682.045 	 -138.355 	 -45.64 	
-137 	 455 	 -2606 	-773.045 	 -159.25 	 -27.58 	
-165 	 925 	 -1730 	-856.275 	 -188.475 	 -0.14 	
-47 	 1415 	 -1070 	-928.83 	 -222.39 	 29.68 	
-54 	 1802 	 -710 	-992.6 	 -254.905 	 61.775 	
87 	 1781 	 -530 	-1046.61 	 -279.895 	 102.795 	
462 	 1240 	 -40 	-1086.19 	 -293.545 	 148.575 	
708 	 244 	 815 	-1098.55 	 -301.035 	 188.58 	
745 	 -1015 	 1334 	-1071.77 	 -306.81 	 225.995 	
1064 	 -2150 	 1091 	-1021.76 	 -305.235 	 269.605 	
1498 	 -2908 	 1009 	-971.53 	 -287.035 	 303.8 	
1188 	 -3413 	 1884 	-907.515 	 -245.42 	 315.315 	
724 	 -3242 	 2075 	-818.895 	 -193.55 	 315.42 	
1170 	 -2989 	 2651 	-725.165 	 -138.46 	 316.54 	
1973 	 -2730 	 3569 	-621.495 	 -94.115 	 299.495 	
1618 	 -1819 	 4278 	-503.755 	 -72.485 	 260.96 	
593 	 -1135 	 4841 	-384.86 	 -84.735 	 232.19 	
313 	 -1141 	 4924 	-269.43 	 -130.69 	 219.765 	
859 	 -1085 	 4722 	-161.665 	 -180.705 	 201.355 	
1538 	 -625 	 4298 	-65.695 	 -205.765 	 167.44 	
1865 	 -210 	 4288 	20.72 	 -187.495 	 126.875 	
1885 	 188 	 4169 	103.6 	 -133.665 	 88.305 	
1675 	 605 	 3748 	177.31 	 -64.295 	 51.8 	
1351 	 945 	 3386 	234.36 	 -3.115 	 16.415 	
971 	 1246 	 3159 	279.44 	 37.17 	 -15.33 	
653 	 1504 	 2799 	318.36 	 59.535 	 -40.355 	
495 	 1667 	 2257 	349.44 	 69.475 	 -60.375 	
393 	 1694 	 1780 	370.475 	 73.08 	 -80.08 	
220 	 1655 	 1376 	385.14 	 75.075 	 -99.82 	
57 	 1643 	 923 	396.41 	 80.255 	 -115.15 	
99 	 1597 	 456 	402.71 	 88.76 	 -124.915 	
150 	 1465 	 168 	404.915 	 101.815 	 -133.63 	
136 	 1391 	 -31 	404.67 	 116.025 	 -141.05 	
55 	 1318 	 -173 	402.5 	 128.555 	 -143.815 	
72 	 1294 	 -284 	398.65 	 136.325 	 -141.645 	
105 	 1216 	 -321 	392.91 	 139.58 	 -137.305 	
55 	 1228 	 -439 	386.505 	 137.27 	 -132.86 	
-38 	 1208 	 -509 	379.085 	 131.355 	 -126.07 	
-48 	 1148 	 -559 	370.545 	 121.695 	 -116.935 	
-57 	 1083 	 -611 	361.865 	 110.215 	 -107.415 	
-34 	 1004 	 -693 	352.73 	 98.525 	 -98.805 	
-129 	 985 	 -762 	343.21 	 87.99 	 -90.86 	
-90 	 912 	 -803 	333.375 	 78.435 	 -80.36 	
-64 	 880 	 -782 	323.155 	 71.68 	 -71.33 	
-30 	 849 	 -818 	314.335 	 67.2 	 -64.085 	
-49 	 843 	 -847 	305.83 	 65.065 	 -56.455 	
-66 	 841 	 -853 	296.8 	 64.19 	 -48.93 	
-45 	 810 	 -824 	288.435 	 63.84 	 -41.545 	
-55 	 801 	 -802 	280.665 	 63.21 	 -35.105 	
-117 	 802 	 -796 	272.86 	 61.74 	 -29.47 	
-181 	 779 	 -792 	265.02 	 58.8 	 -24.01 	
-192 	 718 	 -790 	257.635 	 54.565 	 -18.935 	
-172 	 687 	 -822 	251.09 	 50.12 	 -14.805 	
-175 	 698 	 -839 	244.405 	 46.865 	 -11.445 	
-183 	 720 	 -817 	238 	 44.52 	 -8.19 	
-176 	 714 	 -808 	232.295 	 43.365 	 -5.145 	
-142 	 717 	 -846 	226.8 	 42.875 	 -2.205 	
-152 	 715 	 -833 	221.025 	 43.505 	 0 	
-165 	 713 	 -814 	215.6 	 44.1 	 2.24 	
-163 	 700 	 -810 	210.56 	 44.73 	 4.34 	
-165 	 700 	 -795 	205.765 	 45.045 	 6.16 	
-184 	 691 	 -773 	201.11 	 45.01 	 7.665 	
-193 	 670 	 -775 	197.155 	 44.135 	 9.345 	
-179 	 629 	 -779 	192.64 	 42.77 	 10.92 	
-159 	 585 	 -761 	188.72 	 41.16 	 12.285 	
-143 	 565 	 -763 	185.36 	 39.69 	 13.195 	
-140 	 558 	 -773 	182.035 	 38.815 	 14 	
-130 	 554 	 -762 	178.675 	 38.255 	 14.91 	
-121 	 538 	 -736 	175.525 	 38.29 	 15.575 	
-127 	 522 	 -735 	172.97 	 38.43 	 15.96 	
-112 	 508 	 -772 	170.555 	 38.605 	 16.66 	
-105 	 477 	 -773 	167.615 	 38.71 	 17.395 	
-99 	 449 	 -745 	165.06 	 38.22 	 17.99 	
-89 	 430 	 -750 	163.31 	 37.17 	 18.34 	
-79 	 422 	 -778 	161.14 	 35.875 	 18.69 	
-79 	 398 	 -763 	158.76 	 34.51 	 19.075 	
-52 	 381 	 -778 	157.325 	 32.585 	 19.355 	
-69 	 370 	 -800 	155.925 	 31.08 	 19.775 	
-61 	 351 	 -807 	153.72 	 28.84 	 20.265 	
-57 	 322 	 -791 	151.865 	 26.215 	 20.475 	
-69 	 308 	 -808 	150.955 	 22.995 	 20.23 	
-78 	 284 	 -840 	149.66 	 19.425 	 20.09 	
-67 	 246 	 -853 	148.12 	 14.7 	 19.915 	
-94 	 214 	 -841 	147.07 	 9.87 	 18.865 	
-130 	 200 	 -887 	146.3 	 4.445 	 17.745 	
-146 	 174 	 -905 	144.69 	 -0.315 	 16.975 	
-125 	 110 	 -878 	141.68 	 -3.71 	 15.715 	
-111 	 16 	 -849 	139.51 	 -4.9 	 13.3 	
-176 	 -46 	 -907 	137.305 	 -4.2 	 9.73 	
-329 	 -181 	 -908 	131.985 	 -1.54 	 5.915 	
-532 	 -520 	 -892 	122.815 	 -0.56 	 0.595 	
-831 	 -1160 	 -956 	109.97 	 -2.345 	 -7.315 	
-1244 	 -2070 	 -1158 	92.4 	 -11.935 	 -18.48 	
-1446 	 -3052 	 -1912 	73.78 	 -33.075 	 -32.34 	
-1486 	 -3848 	 -3038 	54.635 	 -60.2 	 -47.39 	
-1254 	 -4292 	 -4130 	24.29 	 -85.82 	 -59.115 	
-599 	 -4359 	 -4723 	-21.595 	 -92.82 	 -67.025 	
-120 	 -3957 	 -4769 	-76.685 	 -69.72 	 -79.17 	
-87 	 -3265 	 -4484 	-145.215 	 -30.87 	 -98.455 	
-696 	 -2690 	 -3848 	-224.21 	 2.52 	 -118.09 	
-1406 	 -1942 	 -3741 	-306.25 	 7.98 	 -128.415 	
-1412 	 -1274 	 -4125 	-401.765 	 -13.825 	 -123.095 	
-621 	 -1053 	 -4245 	-510.51 	 -39.9 	 -108.815 	
227 	 -782 	 -4235 	-617.54 	 -53.83 	 -97.09 	
418 	 -412 	 -4014 	-721.945 	 -61.67 	 -86.275 	
99 	 -91 	 -3341 	-825.3 	 -81.095 	 -66.71 	
-122 	 285 	 -2384 	-923.405 	 -122.605 	 -33.04 	
-45 	 623 	 -1340 	-1011.96 	 -180.635 	 9.975 	
7 	 937 	 -564 	-1083.36 	 -237.405 	 56.525 	
-216 	 1081 	 -427 	-1133.37 	 -282.555 	 108.815 	
-117 	 807 	 -395 	-1146.74 	 -316.295 	 169.4 	
251 	 -157 	 530 	-1146.74 	 -339.745 	 230.09 	
619 	 -1219 	 1689 	-1146.74 	 -361.76 	 281.61 	
629 	 -1830 	 2091 	-1135.72 	 -371.56 	 331.275 	
1061 	 -2380 	 2005 	-1082.45 	 -359.695 	 387.765 	
1601 	 -3053 	 2726 	-1007.44 	 -304.605 	 426.09 	
2115 	 -3583 	 3409 	-898.24 	 -218.47 	 431.445 	
1973 	 -3073 	 3440 	-772.66 	 -136.675 	 419.615 	
1502 	 -2808 	 3980 	-656.145 	 -102.305 	 402.78 	
569 	 -2704 	 5655 	-537.215 	 -131.18 	 379.54 	
161 	 -2235 	 6536 	-396.095 	 -217.735 	 359.905 	
835 	 -1614 	 5710 	-247.1 	 -314.125 	 341.95 	
2023 	 -1240 	 4921 	-117.005 	 -356.37 	 311.535 	
2895 	 -863 	 4636 	-0.735 	 -325.395 	 259.84 	
2874 	 -206 	 4472 	109.655 	 -230.615 	 198.24 	
2573 	 412 	 3947 	206.78 	 -108.5 	 140.525 	
2197 	 881 	 3521 	282.73 	 6.125 	 87.78 	
1748 	 1259 	 3246 	341.53 	 90.72 	 39.445 	
1288 	 1598 	 2886 	389.2 	 141.015 	 -1.26 	
1003 	 1801 	 2441 	425.46 	 160.965 	 -33.775 	
913 	 1820 	 2037 	451.22 	 159.11 	 -62.265 	
824 	 1772 	 1653 	469.56 	 147.63 	 -89.74 	
738 	 1723 	 1227 	483.28 	 135.275 	 -113.54 	
755 	 1593 	 830 	491.575 	 126.14 	 -130.935 	
849 	 1353 	 540 	494.865 	 120.645 	 -145.53 	
814 	 1084 	 295 	495.74 	 118.37 	 -159.88 	
582 	 929 	 85 	495.285 	 117.985 	 -171.605 	
482 	 847 	 -71 	492.87 	 117.67 	 -177.205 	
487 	 729 	 -166 	489.3 	 118.02 	 -179.445 	
549 	 615 	 -314 	485.38 	 119.805 	 -180.6 	
559 	 558 	 -455 	479.85 	 124.985 	 -180.845 	
506 	 610 	 -567 	473.655 	 133.385 	 -178.57 	
555 	 621 	 -670 	467.355 	 143.43 	 -171.955 	
613 	 576 	 -702 	459.795 	 154.63 	 -164.885 	
539 	 593 	 -741 	452.515 	 165.83 	 -158.375 	
451 	 593 	 -772 	445.235 	 174.65 	 -149.24 	
396 	 566 	 -774 	436.905 	 178.745 	 -139.125 	
364 	 524 	 -766 	428.82 	 176.785 	 -128.45 	
265 	 499 	 -728 	420.455 	 169.05 	 -118.265 	
202 	 462 	 -700 	411.985 	 154.035 	 -108.255 	
142 	 396 	 -672 	402.78 	 132.37 	 -98.63 	
167 	 330 	 -657 	393.295 	 104.895 	 -88.305 	
27 	 330 	 -718 	383.775 	 72.94 	 -81.585 	
-14 	 295 	 -795 	374.08 	 38.045 	 -74.515 	
-46 	 259 	 -801 	363.055 	 3.605 	 -68.74 	
-70 	 283 	 -895 	352.765 	 -27.195 	 -64.785 	
-99 	 341 	 -1031 	341.88 	 -50.4 	 -61.95 	
-50 	 376 	 -1142 	329.35 	 -64.26 	 -59.08 	
44 	 386 	 -1225 	316.435 	 -67.41 	 -57.295 	
96 	 423 	 -1312 	304.01 	 -60.2 	 -56.665 	
111 	 466 	 -1396 	290.99 	 -45.15 	 -56.14 	
111 	 463 	 -1410 	277.76 	 -25.62 	 -54.985 	
86 	 467 	 -1406 	265.09 	 -5.005 	 -53.83 	
41 	 469 	 -1385 	252.945 	 13.965 	 -52.57 	
-22 	 450 	 -1359 	241.045 	 28.805 	 -51.065 	
-100 	 404 	 -1325 	229.845 	 38.71 	 -49.315 	
-122 	 338 	 -1293 	219.24 	 43.47 	 -46.725 	
-78 	 287 	 -1253 	208.88 	 43.68 	 -44.59 	
-83 	 268 	 -1192 	198.835 	 40.775 	 -44.31 	
-78 	 271 	 -1196 	190.26 	 35.56 	 -42.035 	
-99 	 306 	 -1166 	181.16 	 29.54 	 -38.955 	
-95 	 309 	 -1097 	172.305 	 21.35 	 -36.715 	
-133 	 310 	 -1072 	164.36 	 12.18 	 -35.175 	
-207 	 312 	 -1068 	157.08 	 1.19 	 -33.32 	
-172 	 302 	 -1134 	149.8 	 -11.865 	 -30.975 	
-235 	 304 	 -1073 	139.37 	 -22.33 	 -28.7 	
-81 	 278 	 -924 	129.57 	 -31.92 	 -26.39 	
-2 	 345 	 -1026 	123.9 	 -36.435 	 -25.97 	
-75 	 419 	 -1150 	117.075 	 -36.855 	 -25.62 	
-91 	 374 	 -1094 	107.45 	 -36.015 	 -23.66 	
-53 	 283 	 -1006 	99.995 	 -34.685 	 -21.875 	
-61 	 262 	 -1059 	94.885 	 -33.6 	 -21.525 	
-109 	 273 	 -1114 	88.34 	 -33.215 	 -21.21 	
-122 	 232 	 -1057 	81.025 	 -33.635 	 -20.09 	
-103 	 181 	 -1008 	75.845 	 -34.51 	 -18.865 	
-68 	 182 	 -1051 	71.54 	 -35.63 	 -18.41 	
-82 	 203 	 -1054 	66.22 	 -36.575 	 -18.27 	
-93 	 206 	 -984 	60.97 	 -37.205 	 -17.675 	
-90 	 210 	 -970 	57.26 	 -37.625 	 -16.94 	
-97 	 225 	 -1020 	53.41 	 -37.66 	 -16.66 	
-122 	 224 	 -1035 	48.65 	 -37.205 	 -16.345 	
-124 	 197 	 -1017 	44.275 	 -36.155 	 -15.505 	
-90 	 186 	 -1023 	40.88 	 -34.23 	 -14.63 	
-60 	 208 	 -1039 	37.31 	 -31.045 	 -14.49 	
-66 	 229 	 -1032 	33.46 	 -26.775 	 -14.35 	
-81 	 236 	 -1007 	30.065 	 -21.735 	 -13.685 	
-73 	 250 	 -1001 	27.02 	 -16.695 	 -12.705 	
-66 	 258 	 -1012 	23.87 	 -11.83 	 -11.83 	
-81 	 252 	 -990 	20.545 	 -7.385 	 -11.165 	
-87 	 245 	 -961 	17.78 	 -3.745 	 -10.22 	
-78 	 243 	 -955 	15.47 	 -0.875 	 -9.03 	
-73 	 243 	 -952 	13.125 	 1.05 	 -8.015 	
-80 	 237 	 -931 	10.745 	 2.17 	 -6.93 	
-85 	 235 	 -915 	9.03 	 2.345 	 -5.635 	
-78 	 237 	 -917 	7.525 	 1.89 	 -4.13 	
-58 	 233 	 -909 	5.74 	 1.155 	 -2.555 	
-43 	 224 	 -894 	4.48 	 0.07 	 -1.155 	
-43 	 223 	 -893 	3.71 	 -1.33 	 0.35 	
-44 	 220 	 -906 	2.765 	 -2.87 	 2.1 	
-42 	 201 	 -910 	1.68 	 -4.69 	 4.025 	
-41 	 186 	 -900 	0.56 	 -6.44 	 5.845 	
-31 	 198 	 -895 	-0.21 	 -8.12 	 7.56 	
-25 	 232 	 -905 	-0.7 	 -9.24 	 9.205 	
-21 	 257 	 -913 	-1.575 	 -9.8 	 10.99 	
-13 	 264 	 -903 	-2.625 	 -9.94 	 12.88 	
-18 	 270 	 -887 	-3.325 	 -9.8 	 14.525 	
