STEVAL-MKI197V1 (LSM6DSOX)

A_X [mg] 	 A_Y [mg] 	 A_Z [mg] 	G_X [dps] 	 G_Y [dps] 	 G_Z [dps] 	
-94 	 -3304 	 -3602 	 88.34 	 211.085 	 -13.825 	
-372 	 -2880 	 -3802 	 73.675 	 297.43 	 -9.1 	
-1179 	 -2707 	 -3883 	 48.58 	 367.115 	 -3.255 	
-2035 	 -2582 	 -3350 	 5.355 	 390.145 	 3.325 	
-2339 	 -2420 	 -2735 	 -43.26 	 360.64 	 10.675 	
-2226 	 -2056 	 -2748 	 -92.75 	 288.05 	 9.765 	
-2246 	 -1675 	 -2752 	 -155.68 	 199.43 	 1.33 	
-1970 	 -1554 	 -2587 	 -228.62 	 114.73 	 -2.905 	
-1520 	 -1327 	 -2475 	 -301.35 	 51.625 	 -6.79 	
-1232 	 -1018 	 -2420 	 -378.49 	 10.78 	 -17.325 	
-1577 	 -670 	 -1861 	 -458.605 	 -13.79 	 -31.675 	
-2094 	 -181 	 -1077 	 -534.065 	 -37.31 	 -40.18 	
-2300 	 238 	 -362 	 -602.21 	 -59.185 	 -41.545 	
-2123 	 556 	 234 	 -664.475 	 -72.94 	 -40.565 	
-1999 	 770 	 1008 	 -718.13 	 -70.77 	 -39.9 	
-1965 	 711 	 1845 	 -754.53 	 -50.155 	 -34.195 	
-1762 	 469 	 2569 	 -771.505 	 -16.135 	 -20.055 	
-1495 	 47 	 3273 	 -772.695 	 21.245 	 -3.955 	
-1438 	 -465 	 4412 	 -753.585 	 52.465 	 8.925 	
-1880 	 -798 	 5483 	 -709.66 	 62.755 	 19.74 	
-2286 	 -811 	 6120 	 -643.79 	 40.635 	 44.45 	
-2082 	 -880 	 6466 	 -562.24 	 -7.175 	 80.22 	
-1612 	 -922 	 6694 	 -466.06 	 -63.455 	 113.575 	
-1279 	 -976 	 6697 	 -355.18 	 -116.62 	 141.61 	
-1200 	 -845 	 6254 	 -236.39 	 -160.475 	 165.13 	
-1134 	 -729 	 5962 	 -116.095 	 -188.86 	 189.245 	
-696 	 -810 	 5563 	 6.405 	 -202.51 	 209.02 	
-274 	 -725 	 4892 	 126.28 	 -196.0 	 215.425 	
-48 	 -669 	 4318 	 232.96 	 -170.17 	 211.89 	
62 	 -685 	 3877 	 325.955 	 -130.97 	 203.07 	
177 	 -570 	 3373 	 405.615 	 -88.83 	 189.385 	
131 	 -314 	 2846 	 469.42 	 -54.075 	 170.065 	
-30 	 -25 	 2378 	 515.2 	 -37.975 	 148.365 	
-161 	 197 	 1957 	 545.02 	 -36.785 	 127.54 	
-89 	 296 	 1399 	 561.61 	 -45.535 	 108.255 	
132 	 327 	 708 	 564.095 	 -56.735 	 86.31 	
205 	 260 	 54 	 553.175 	 -63.0 	 59.22 	
139 	 185 	 -572 	 532.455 	 -58.8 	 30.38 	
120 	 164 	 -1134 	 504.07 	 -43.12 	 3.675 	
165 	 98 	 -1337 	 470.61 	 -16.94 	 -21.035 	
173 	 18 	 -1412 	 438.515 	 12.04 	 -45.15 	
-61 	 -25 	 -1503 	 406.385 	 34.37 	 -68.145 	
-370 	 -87 	 -1507 	 371.875 	 40.53 	 -86.45 	
-533 	 -199 	 -1418 	 336.805 	 29.785 	 -99.925 	
-508 	 -312 	 -1422 	 303.87 	 10.85 	 -111.475 	
-431 	 -386 	 -1529 	 271.775 	 -4.62 	 -123.375 	
-409 	 -443 	 -1535 	 240.345 	 -9.695 	 -134.295 	
-462 	 -470 	 -1416 	 212.065 	 -4.83 	 -142.94 	
-578 	 -464 	 -1321 	 187.985 	 4.935 	 -149.345 	
-691 	 -468 	 -1249 	 166.215 	 14.21 	 -153.65 	
-752 	 -490 	 -1141 	 145.915 	 20.51 	 -156.17 	
-793 	 -515 	 -1000 	 128.03 	 24.57 	 -157.71 	
-844 	 -508 	 -898 	 113.295 	 27.16 	 -158.13 	
-898 	 -510 	 -833 	 100.66 	 28.735 	 -157.045 	
-927 	 -537 	 -752 	 89.81 	 29.015 	 -154.77 	
-945 	 -561 	 -656 	 80.815 	 28.385 	 -152.285 	
-980 	 -558 	 -581 	 73.99 	 26.985 	 -149.45 	
-1012 	 -538 	 -521 	 68.915 	 25.41 	 -145.6 	
-1026 	 -535 	 -461 	 65.24 	 23.94 	 -141.155 	
-1035 	 -546 	 -425 	 62.93 	 23.065 	 -136.675 	
-1046 	 -557 	 -393 	 61.705 	 22.26 	 -132.055 	
-1052 	 -577 	 -355 	 61.215 	 21.49 	 -127.12 	
-1051 	 -593 	 -317 	 61.705 	 20.37 	 -122.15 	
-1074 	 -580 	 -275 	 63.245 	 19.18 	 -117.53 	
-1113 	 -557 	 -250 	 65.555 	 18.34 	 -112.7 	
-1115 	 -548 	 -248 	 68.25 	 18.13 	 -107.415 	
-1073 	 -555 	 -243 	 70.98 	 19.705 	 -102.165 	
-1045 	 -579 	 -241 	 74.06 	 23.1 	 -97.685 	
-1054 	 -585 	 -246 	 77.315 	 28.315 	 -93.45 	
-1070 	 -563 	 -238 	 80.605 	 34.895 	 -89.005 	
-1075 	 -538 	 -226 	 84.035 	 42.595 	 -84.525 	
-1080 	 -518 	 -231 	 87.71 	 51.135 	 -80.22 	
-1094 	 -517 	 -240 	 91.035 	 59.815 	 -75.81 	
-1104 	 -551 	 -218 	 93.38 	 67.725 	 -71.225 	
-1116 	 -615 	 -195 	 95.585 	 73.15 	 -66.71 	
-1130 	 -630 	 -225 	 97.965 	 75.25 	 -62.545 	
-1168 	 -604 	 -278 	 100.45 	 73.71 	 -58.065 	
-1190 	 -630 	 -335 	 102.725 	 68.845 	 -52.745 	
-1192 	 -729 	 -417 	 104.965 	 61.88 	 -46.865 	
-1192 	 -909 	 -574 	 107.73 	 54.32 	 -40.53 	
-1169 	 -1190 	 -854 	 110.95 	 46.9 	 -33.215 	
-1134 	 -1613 	 -1270 	 115.08 	 40.88 	 -24.43 	
-1124 	 -2260 	 -1832 	 118.86 	 37.17 	 -13.65 	
-840 	 -3192 	 -2521 	 121.1 	 37.17 	 2.8 	
-148 	 -4037 	 -3271 	 122.92 	 47.145 	 24.01 	
534 	 -4399 	 -3854 	 118.3 	 77.07 	 39.41 	
808 	 -4225 	 -3969 	 102.55 	 132.23 	 50.61 	
673 	 -3826 	 -3655 	 78.89 	 198.24 	 69.615 	
326 	 -3502 	 -3463 	 43.295 	 238.49 	 90.44 	
-276 	 -3339 	 -3142 	 -11.48 	 218.61 	 103.95 	
-1484 	 -3198 	 -2182 	 -80.99 	 124.985 	 109.095 	
-1988 	 -2638 	 -2157 	 -153.93 	 -47.495 	 119.63 	
-1483 	 -1774 	 -2820 	 -234.01 	 -222.39 	 139.265 	
-382 	 -1585 	 -3291 	 -331.695 	 -343.28 	 153.895 	
314 	 -1227 	 -3570 	 -428.855 	 -385.91 	 158.69 	
-420 	 -589 	 -3245 	 -523.915 	 -361.935 	 154.945 	
-1285 	 -148 	 -2563 	 -616.14 	 -322.875 	 160.265 	
-1575 	 334 	 -1889 	 -703.15 	 -296.205 	 171.955 	
-1529 	 673 	 -822 	 -789.005 	 -287.595 	 175.245 	
-1794 	 1039 	 202 	 -860.405 	 -286.545 	 169.82 	
-1946 	 1392 	 620 	 -914.83 	 -278.005 	 171.5 	
-1191 	 1046 	 1486 	 -958.965 	 -242.27 	 184.205 	
-177 	 -35 	 2953 	 -971.25 	 -162.96 	 190.575 	
194 	 -853 	 3679 	 -939.365 	 -56.315 	 180.145 	
-101 	 -1432 	 3571 	 -884.8 	 48.965 	 158.795 	
-913 	 -2008 	 4405 	 -821.87 	 114.485 	 130.06 	
-1475 	 -2544 	 5922 	 -731.885 	 115.57 	 107.59 	
-1401 	 -2277 	 6175 	 -609.42 	 68.67 	 92.995 	
-1207 	 -1988 	 5885 	 -484.33 	 7.56 	 80.64 	
-1010 	 -1962 	 6214 	 -359.1 	 -33.355 	 70.21 	
-670 	 -1545 	 6105 	 -218.015 	 -42.14 	 62.265 	
-294 	 -1120 	 5876 	 -74.62 	 -18.13 	 52.325 	
-215 	 -842 	 5552 	 58.275 	 23.03 	 40.845 	
-335 	 -539 	 5321 	 177.38 	 66.045 	 32.725 	
-593 	 -464 	 5102 	 285.95 	 97.265 	 27.265 	
-859 	 -287 	 4421 	 380.8 	 108.045 	 22.645 	
-943 	 -37 	 3682 	 455.28 	 102.55 	 20.335 	
-814 	 111 	 3130 	 512.995 	 91.035 	 19.775 	
-589 	 362 	 2457 	 558.95 	 80.36 	 17.78 	
-409 	 637 	 1704 	 588.91 	 76.37 	 15.295 	
-259 	 778 	 1057 	 600.88 	 80.85 	 15.33 	
-88 	 745 	 573 	 598.85 	 90.615 	 17.22 	
-15 	 687 	 80 	 589.085 	 101.01 	 17.78 	
-130 	 572 	 -317 	 571.9 	 104.09 	 16.87 	
-366 	 300 	 -597 	 548.17 	 93.485 	 15.68 	
-599 	 57 	 -902 	 521.815 	 68.81 	 14.77 	
-618 	 -164 	 -1342 	 490.63 	 34.475 	 13.685 	
-511 	 -366 	 -1558 	 453.635 	 1.19 	 8.61 	
-458 	 -425 	 -1642 	 417.2 	 -23.38 	 -0.56 	
-503 	 -288 	 -1781 	 383.11 	 -35.385 	 -9.555 	
-548 	 -230 	 -1818 	 347.165 	 -38.605 	 -15.82 	
-584 	 -298 	 -1741 	 310.17 	 -39.025 	 -22.015 	
-722 	 -342 	 -1693 	 274.82 	 -41.895 	 -29.96 	
-915 	 -329 	 -1670 	 239.4 	 -50.54 	 -37.765 	
-1010 	 -369 	 -1555 	 204.435 	 -63.455 	 -42.98 	
-966 	 -419 	 -1449 	 172.76 	 -76.405 	 -47.495 	
-912 	 -436 	 -1394 	 144.375 	 -85.19 	 -53.375 	
-941 	 -434 	 -1328 	 118.685 	 -87.955 	 -59.64 	
-984 	 -440 	 -1220 	 96.145 	 -84.91 	 -63.875 	
-967 	 -479 	 -1148 	 77.07 	 -77.315 	 -66.675 	
-937 	 -523 	 -1080 	 61.04 	 -66.045 	 -70.0 	
-952 	 -540 	 -962 	 47.635 	 -51.905 	 -73.85 	
-983 	 -536 	 -806 	 37.695 	 -36.295 	 -76.79 	
-981 	 -517 	 -689 	 31.08 	 -20.51 	 -78.295 	
-963 	 -510 	 -594 	 26.495 	 -6.16 	 -79.45 	
-973 	 -518 	 -498 	 23.31 	 5.145 	 -81.095 	
-1020 	 -516 	 -387 	 21.84 	 12.705 	 -82.39 	
-1044 	 -513 	 -305 	 21.875 	 16.87 	 -82.67 	
-1033 	 -505 	 -243 	 22.715 	 18.795 	 -82.67 	
-1016 	 -493 	 -196 	 24.535 	 19.845 	 -82.775 	
-1012 	 -480 	 -160 	 27.09 	 20.79 	 -82.915 	
-999 	 -467 	 -138 	 30.205 	 22.505 	 -82.74 	
-978 	 -458 	 -113 	 33.74 	 25.095 	 -82.39 	
-946 	 -455 	 -108 	 37.835 	 28.245 	 -81.725 	
-944 	 -449 	 -76 	 41.79 	 31.745 	 -81.375 	
-938 	 -437 	 -46 	 46.305 	 34.895 	 -80.5 	
-933 	 -418 	 -30 	 51.03 	 37.52 	 -79.555 	
-929 	 -399 	 -23 	 55.65 	 39.48 	 -78.575 	
-926 	 -389 	 -25 	 60.2 	 40.95 	 -77.525 	
-922 	 -382 	 -20 	 64.855 	 41.86 	 -76.335 	
-918 	 -384 	 -15 	 69.44 	 42.35 	 -75.005 	
-922 	 -390 	 -1 	 73.955 	 42.175 	 -73.57 	
-936 	 -421 	 4 	 78.26 	 40.355 	 -71.995 	
-945 	 -469 	 -21 	 82.635 	 36.295 	 -69.895 	
-979 	 -544 	 -77 	 87.535 	 29.54 	 -67.935 	
-1101 	 -741 	 -216 	 93.17 	 19.67 	 -66.185 	
-1240 	 -1112 	 -511 	 100.03 	 5.88 	 -62.79 	
-1321 	 -1669 	 -1006 	 108.605 	 -10.815 	 -57.12 	
-1389 	 -2478 	 -1588 	 117.565 	 -28.525 	 -50.82 	
-1265 	 -3638 	 -2409 	 127.68 	 -43.75 	 -39.515 	
-686 	 -4900 	 -3530 	 138.565 	 -44.8 	 -21.595 	
170 	 -5842 	 -4261 	 138.39 	 -16.73 	 -7.28 	
688 	 -5804 	 -4229 	 125.37 	 52.605 	 -1.715 	
714 	 -4791 	 -4389 	 111.93 	 149.94 	 6.37 	
143 	 -3744 	 -4683 	 82.145 	 239.47 	 22.12 	
-1062 	 -3611 	 -3854 	 21.84 	 277.865 	 38.955 	
-1769 	 -3605 	 -2713 	 -46.13 	 221.585 	 57.435 	
-1922 	 -2946 	 -2546 	 -115.78 	 85.785 	 72.625 	
-1686 	 -2360 	 -3065 	 -207.97 	 -86.59 	 86.31 	
-1157 	 -1894 	 -3233 	 -318.78 	 -232.05 	 104.685 	
-483 	 -1660 	 -3404 	 -431.97 	 -317.66 	 126.63 	
-554 	 -1122 	 -3364 	 -544.67 	 -344.575 	 140.98 	
-1483 	 -460 	 -2763 	 -658.315 	 -348.355 	 151.655 	
-2551 	 239 	 -1892 	 -762.895 	 -352.555 	 172.97 	
-2673 	 871 	 -1265 	 -859.635 	 -364.07 	 205.065 	
-2441 	 1190 	 -429 	 -948.78 	 -369.495 	 229.81 	
-2501 	 1582 	 302 	 -1020.95 	 -358.47 	 243.88 	
-2516 	 1853 	 1030 	 -1075.34 	 -321.65 	 262.71 	
-1226 	 1184 	 2331 	 -1106.11 	 -244.335 	 298.025 	
762 	 -968 	 3843 	 -1092.91 	 -115.85 	 329.595 	
1643 	 -2336 	 4045 	 -1034.43 	 43.925 	 319.97 	
626 	 -2596 	 3986 	 -961.94 	 187.25 	 274.785 	
-860 	 -3148 	 5490 	 -880.81 	 255.36 	 238.105 	
-1505 	 -3381 	 6900 	 -757.015 	 234.43 	 220.15 	
-843 	 -2975 	 6896 	 -604.45 	 142.24 	 208.25 	
-295 	 -2280 	 5928 	 -455.805 	 66.64 	 191.66 	
-631 	 -2013 	 6906 	 -321.195 	 12.635 	 173.495 	
-184 	 -1825 	 7454 	 -157.605 	 -28.63 	 165.305 	
205 	 -1150 	 6614 	 10.815 	 -29.4 	 146.125 	
245 	 -991 	 6160 	 152.775 	 -5.145 	 127.89 	
491 	 -868 	 5858 	 275.45 	 27.755 	 110.81 	
368 	 -754 	 5309 	 387.24 	 59.045 	 87.815 	
-82 	 -509 	 4499 	 480.095 	 71.19 	 62.65 	
-424 	 -147 	 3810 	 550.725 	 61.565 	 43.96 	
-353 	 49 	 3272 	 606.165 	 37.345 	 31.255 	
68 	 203 	 2337 	 648.06 	 16.45 	 17.115 	
377 	 395 	 1270 	 669.2 	 15.155 	 -0.84 	
429 	 465 	 553 	 670.985 	 38.08 	 -17.36 	
387 	 387 	 0 	 664.79 	 78.855 	 -28.28 	
331 	 268 	 -711 	 652.925 	 124.635 	 -36.995 	
95 	 87 	 -1202 	 629.09 	 163.065 	 -45.255 	
-199 	 -122 	 -1257 	 596.12 	 180.67 	 -50.085 	
-394 	 -237 	 -1379 	 563.185 	 170.1 	 -50.995 	
-497 	 -231 	 -1557 	 527.205 	 136.78 	 -51.94 	
-582 	 -298 	 -1528 	 486.325 	 89.6 	 -53.76 	
-592 	 -308 	 -1542 	 446.32 	 41.405 	 -55.335 	
-536 	 -251 	 -1740 	 406.84 	 1.4 	 -56.84 	
-460 	 -274 	 -1864 	 363.93 	 -25.795 	 -59.185 	
-487 	 -343 	 -1940 	 321.23 	 -40.425 	 -63.245 	
-588 	 -323 	 -2033 	 279.335 	 -46.165 	 -67.865 	
-718 	 -265 	 -1919 	 237.405 	 -45.675 	 -71.54 	
-807 	 -239 	 -1678 	 200.165 	 -40.81 	 -73.605 	
-805 	 -207 	 -1607 	 169.26 	 -33.215 	 -75.075 	
-817 	 -210 	 -1605 	 140.0 	 -24.395 	 -77.42 	
-896 	 -285 	 -1488 	 112.14 	 -15.4 	 -79.8 	
-967 	 -339 	 -1333 	 88.935 	 -6.755 	 -80.5 	
-953 	 -363 	 -1225 	 70.35 	 1.82 	 -79.975 	
-911 	 -401 	 -1123 	 55.09 	 10.78 	 -80.185 	
-922 	 -425 	 -983 	 43.015 	 20.3 	 -80.92 	
-993 	 -411 	 -864 	 34.51 	 28.945 	 -80.71 	
-1039 	 -419 	 -769 	 28.105 	 34.58 	 -78.225 	
-1008 	 -483 	 -650 	 22.82 	 35.63 	 -74.62 	
-997 	 -529 	 -511 	 19.705 	 32.13 	 -72.625 	
-1084 	 -516 	 -429 	 18.76 	 24.36 	 -71.4 	
-1169 	 -473 	 -383 	 18.2 	 14.07 	 -68.075 	
-1153 	 -443 	 -310 	 18.025 	 3.185 	 -63.245 	
-1104 	 -432 	 -269 	 19.32 	 -5.985 	 -59.115 	
-1098 	 -414 	 -284 	 21.315 	 -12.04 	 -56.21 	
-1090 	 -395 	 -302 	 23.1 	 -14.175 	 -52.85 	
-1056 	 -394 	 -284 	 25.095 	 -12.46 	 -48.965 	
-1037 	 -384 	 -264 	 28.07 	 -7.21 	 -45.71 	
-1048 	 -355 	 -256 	 31.71 	 0.7 	 -42.875 	
-1048 	 -341 	 -264 	 35.42 	 10.01 	 -39.935 	
-1026 	 -348 	 -268 	 39.48 	 20.16 	 -36.925 	
-1010 	 -357 	 -257 	 43.785 	 30.555 	 -34.23 	
-1018 	 -363 	 -244 	 48.405 	 40.495 	 -31.71 	
-1020 	 -362 	 -243 	 53.06 	 49.105 	 -29.05 	
-1006 	 -357 	 -226 	 58.1 	 55.545 	 -26.11 	
-1014 	 -344 	 -194 	 63.28 	 60.34 	 -23.625 	
-1025 	 -336 	 -179 	 68.285 	 62.965 	 -21.455 	
-1033 	 -326 	 -169 	 73.01 	 63.805 	 -19.11 	
-1038 	 -338 	 -155 	 77.63 	 62.72 	 -16.8 	
-1041 	 -364 	 -157 	 81.9 	 59.57 	 -15.015 	
-1056 	 -372 	 -187 	 86.065 	 54.285 	 -13.475 	
-1086 	 -404 	 -252 	 90.685 	 47.11 	 -12.25 	
-1153 	 -509 	 -372 	 95.34 	 39.2 	 -11.305 	
-1231 	 -737 	 -560 	 100.17 	 30.695 	 -10.185 	
-1273 	 -1116 	 -876 	 105.91 	 22.54 	 -7.84 	
-1282 	 -1690 	 -1434 	 113.05 	 16.275 	 -4.9 	
-1251 	 -2484 	 -2224 	 119.77 	 15.4 	 -1.47 	
-1029 	 -3553 	 -2970 	 123.2 	 27.23 	 7.07 	
-212 	 -4578 	 -3618 	 124.915 	 58.45 	 23.66 	
961 	 -4922 	 -4268 	 122.325 	 113.12 	 39.41 	
1334 	 -4694 	 -4651 	 107.59 	 185.675 	 42.665 	
228 	 -4502 	 -4389 	 77.49 	 244.755 	 44.17 	
-1090 	 -4172 	 -3963 	 32.48 	 243.145 	 57.61 	
-1743 	 -3590 	 -3556 	 -27.475 	 167.16 	 76.09 	
-1976 	 -2964 	 -2983 	 -104.265 	 33.355 	 84.28 	
-1834 	 -2077 	 -3200 	 -186.025 	 -108.78 	 90.3 	
-1012 	 -1328 	 -3958 	 -280.42 	 -208.95 	 104.86 	
-231 	 -1057 	 -4310 	 -389.97 	 -239.715 	 116.06 	
-334 	 -762 	 -4017 	 -500.535 	 -221.795 	 117.635 	
-1105 	 -208 	 -3502 	 -608.335 	 -204.96 	 122.57 	
-1882 	 205 	 -2650 	 -715.82 	 -220.815 	 139.615 	
-2271 	 507 	 -1633 	 -815.325 	 -269.29 	 164.99 	
-2152 	 704 	 -1120 	 -901.705 	 -331.03 	 193.27 	
-1959 	 727 	 -814 	 -976.255 	 -374.22 	 223.02 	
-1776 	 475 	 -403 	 -1035.93 	 -378.0 	 257.845 	
-1283 	 71 	 379 	 -1073.03 	 -333.375 	 299.95 	
-162 	 -858 	 1665 	 -1080.21 	 -242.095 	 340.27 	
410 	 -1904 	 3088 	 -1052.91 	 -120.05 	 359.695 	
64 	 -2314 	 3901 	 -995.12 	 -5.95 	 360.5 	
-648 	 -2577 	 4645 	 -920.36 	 57.015 	 354.97 	
-1431 	 -2995 	 5678 	 -826.245 	 43.33 	 348.775 	
-1616 	 -3048 	 6486 	 -707.0 	 -42.385 	 346.045 	
-1024 	 -2535 	 6402 	 -571.97 	 -149.03 	 347.27 	
-413 	 -2272 	 6509 	 -432.145 	 -233.59 	 342.475 	
299 	 -2111 	 6684 	 -282.835 	 -279.615 	 328.685 	
1059 	 -1728 	 6193 	 -126.56 	 -272.195 	 303.59 	
1572 	 -1531 	 5765 	 17.955 	 -215.495 	 267.855 	
1755 	 -1311 	 5640 	 147.805 	 -134.19 	 223.055 	
1558 	 -1088 	 5323 	 267.47 	 -53.62 	 174.475 	
1289 	 -850 	 4539 	 370.37 	 6.16 	 127.47 	
1078 	 -580 	 3836 	 450.24 	 40.39 	 81.235 	
837 	 -358 	 3430 	 514.675 	 50.68 	 35.315 	
723 	 -100 	 2703 	 569.17 	 48.895 	 -7.14 	
850 	 135 	 1711 	 604.38 	 46.55 	 -45.815 	
970 	 205 	 987 	 617.715 	 51.275 	 -84.945 	
871 	 264 	 357 	 619.78 	 67.48 	 -124.565 	
638 	 296 	 -350 	 614.53 	 91.945 	 -159.04 	
489 	 292 	 -964 	 597.1 	 117.005 	 -186.2 	
388 	 241 	 -1202 	 569.59 	 134.295 	 -208.985 	
178 	 223 	 -1209 	 539.805 	 137.445 	 -228.655 	
-130 	 201 	 -1300 	 510.3 	 123.445 	 -243.95 	
-354 	 239 	 -1527 	 477.33 	 97.44 	 -251.685 	
-344 	 184 	 -1649 	 438.585 	 67.795 	 -254.485 	
-274 	 73 	 -1704 	 400.19 	 42.14 	 -256.655 	
-289 	 15 	 -2017 	 363.335 	 25.305 	 -258.44 	
-374 	 0 	 -2282 	 322.77 	 21.21 	 -257.705 	
-461 	 -28 	 -2172 	 281.26 	 28.805 	 -253.26 	
-462 	 -19 	 -2005 	 245.63 	 43.89 	 -245.35 	
-490 	 2 	 -1888 	 215.215 	 59.29 	 -237.685 	
-751 	 14 	 -1704 	 186.655 	 67.48 	 -231.105 	
-1106 	 12 	 -1488 	 160.58 	 63.315 	 -221.305 	
-1242 	 -84 	 -1421 	 137.725 	 46.725 	 -206.99 	
-1139 	 -297 	 -1455 	 116.655 	 23.415 	 -192.78 	
-1033 	 -486 	 -1448 	 97.58 	 0.805 	 -182.49 	
-1115 	 -556 	 -1361 	 82.705 	 -16.625 	 -174.51 	
-1242 	 -532 	 -1304 	 71.54 	 -27.825 	 -164.29 	
-1242 	 -520 	 -1246 	 62.405 	 -33.04 	 -151.445 	
-1191 	 -547 	 -1131 	 54.67 	 -34.125 	 -140.315 	
-1234 	 -518 	 -996 	 49.805 	 -33.81 	 -130.795 	
-1330 	 -462 	 -879 	 46.725 	 -34.545 	 -120.54 	
-1362 	 -411 	 -779 	 44.52 	 -37.345 	 -109.2 	
-1358 	 -368 	 -653 	 43.225 	 -41.79 	 -98.28 	
-1366 	 -320 	 -540 	 43.365 	 -46.095 	 -88.34 	
-1353 	 -267 	 -500 	 44.975 	 -49.315 	 -78.61 	
-1306 	 -229 	 -496 	 46.69 	 -49.77 	 -69.09 	
-1265 	 -214 	 -456 	 48.72 	 -46.97 	 -59.85 	
-1255 	 -203 	 -378 	 51.45 	 -41.195 	 -51.415 	
-1242 	 -157 	 -319 	 55.02 	 -33.705 	 -43.785 	
-1224 	 -91 	 -269 	 58.905 	 -24.745 	 -36.645 	
-1199 	 -43 	 -218 	 62.86 	 -15.19 	 -30.24 	
-1188 	 -8 	 -165 	 67.06 	 -5.075 	 -24.605 	
-1159 	 20 	 -137 	 71.47 	 5.075 	 -19.11 	
-1127 	 54 	 -122 	 75.46 	 14.42 	 -14.14 	
-1104 	 80 	 -85 	 79.17 	 21.945 	 -10.01 	
-1113 	 99 	 -35 	 82.915 	 27.23 	 -6.475 	
-1131 	 125 	 3 	 86.8 	 29.89 	 -3.08 	
-1141 	 160 	 33 	 90.44 	 30.24 	 -0.14 	
-1146 	 192 	 51 	 94.045 	 28.98 	 1.96 	
-1141 	 195 	 30 	 97.72 	 26.95 	 3.78 	
-1129 	 172 	 5 	 101.08 	 24.815 	 5.075 	
-1105 	 135 	 -5 	 104.3 	 23.275 	 5.81 	
-1086 	 115 	 -12 	 107.94 	 22.89 	 5.985 	
-1070 	 103 	 -44 	 111.79 	 24.15 	 5.6 	
-1067 	 81 	 -96 	 115.745 	 27.02 	 4.69 	
-1109 	 -30 	 -200 	 119.945 	 31.29 	 3.29 	
-1152 	 -220 	 -360 	 124.775 	 36.61 	 1.89 	
-1112 	 -421 	 -562 	 130.445 	 42.245 	 1.19 	
-1098 	 -678 	 -796 	 137.445 	 48.86 	 -0.315 	
-1203 	 -1125 	 -1137 	 146.3 	 55.335 	 -2.905 	
-1396 	 -1954 	 -1806 	 156.905 	 61.25 	 -3.745 	
-1290 	 -3090 	 -2603 	 166.145 	 70.105 	 4.025 	
-405 	 -4268 	 -3355 	 172.13 	 87.395 	 20.405 	
683 	 -4982 	 -3695 	 173.565 	 124.81 	 31.605 	
1088 	 -4878 	 -3937 	 166.6 	 179.55 	 33.88 	
669 	 -4169 	 -4445 	 151.48 	 229.215 	 41.055 	
-503 	 -3657 	 -4222 	 114.1 	 241.255 	 54.39 	
-1562 	 -3403 	 -3354 	 50.365 	 185.395 	 68.285 	
-2224 	 -2628 	 -2666 	 -19.88 	 66.43 	 79.065 	
-2366 	 -1516 	 -2991 	 -94.36 	 -84.21 	 85.645 	
-1890 	 -634 	 -3846 	 -188.195 	 -209.195 	 97.335 	
-984 	 -89 	 -4367 	 -299.285 	 -264.25 	 112.0 	
-686 	 374 	 -4240 	 -415.695 	 -249.48 	 117.145 	
-1495 	 813 	 -3485 	 -528.85 	 -210.875 	 118.125 	
-2644 	 1289 	 -2941 	 -632.415 	 -197.435 	 131.985 	
-2989 	 1392 	 -2797 	 -733.565 	 -224.21 	 163.8 	
-2426 	 1004 	 -2520 	 -834.82 	 -277.55 	 201.04 	
-1910 	 502 	 -1872 	 -922.46 	 -330.75 	 234.605 	
-1957 	 250 	 -1072 	 -983.92 	 -364.105 	 271.67 	
-2188 	 74 	 -343 	 -1019.24 	 -371.455 	 322.595 	
-1784 	 -402 	 305 	 -1028.48 	 -349.125 	 388.955 	
-532 	 -1603 	 1251 	 -1012.13 	 -294.595 	 454.3 	
223 	 -2501 	 2505 	 -968.87 	 -215.915 	 489.055 	
-473 	 -2450 	 3425 	 -895.825 	 -134.4 	 498.925 	
-1051 	 -2187 	 4059 	 -806.785 	 -86.975 	 515.9 	
-878 	 -2759 	 4976 	 -705.425 	 -84.14 	 532.385 	
-544 	 -2676 	 5803 	 -588.49 	 -115.57 	 527.625 	
-296 	 -2238 	 6162 	 -460.53 	 -162.12 	 512.155 	
-138 	 -2069 	 6476 	 -327.005 	 -213.185 	 493.955 	
375 	 -1994 	 6485 	 -190.61 	 -259.735 	 469.385 	
1065 	 -1749 	 6010 	 -57.505 	 -284.69 	 428.54 	
1512 	 -1479 	 5577 	 66.815 	 -274.015 	 373.275 	
2127 	 -1240 	 4845 	 183.26 	 -227.43 	 309.26 	
2596 	 -997 	 3778 	 284.9 	 -149.765 	 234.465 	
2400 	 -749 	 2989 	 365.715 	 -58.765 	 150.92 	
1753 	 -442 	 2515 	 430.92 	 18.34 	 71.295 	
1306 	 -219 	 2047 	 483.42 	 64.05 	 4.41 	
1372 	 -156 	 1479 	 520.73 	 77.455 	 -56.315 	
1541 	 -141 	 907 	 542.745 	 75.74 	 -121.065 	
1413 	 -2 	 329 	 553.63 	 80.885 	 -184.415 	
1340 	 72 	 -334 	 553.77 	 100.87 	 -235.76 	
1477 	 43 	 -853 	 540.855 	 132.965 	 -277.375 	
1420 	 0 	 -1025 	 518.805 	 165.445 	 -316.715 	
961 	 74 	 -985 	 495.11 	 185.395 	 -350.875 	
585 	 203 	 -1075 	 468.51 	 182.42 	 -371.7 	
562 	 230 	 -1141 	 433.51 	 158.165 	 -380.94 	
579 	 133 	 -1020 	 395.045 	 121.975 	 -388.605 	
328 	 241 	 -1016 	 357.805 	 82.11 	 -395.185 	
57 	 273 	 -1134 	 319.48 	 43.68 	 -394.31 	
-26 	 155 	 -1297 	 279.37 	 11.62 	 -387.695 	
-111 	 29 	 -1413 	 239.855 	 -10.29 	 -381.535 	
-305 	 -55 	 -1415 	 203.28 	 -22.05 	 -375.06 	
-559 	 -135 	 -1372 	 171.36 	 -26.39 	 -364.735 	
-738 	 -217 	 -1313 	 144.585 	 -27.51 	 -350.56 	
-870 	 -324 	 -1197 	 122.15 	 -29.435 	 -336.7 	
-1090 	 -418 	 -1067 	 105.35 	 -33.215 	 -324.275 	
-1335 	 -454 	 -1012 	 93.975 	 -37.975 	 -310.52 	
-1504 	 -505 	 -964 	 85.645 	 -41.58 	 -293.65 	
-1509 	 -616 	 -927 	 80.675 	 -43.715 	 -275.38 	
-1556 	 -681 	 -856 	 79.205 	 -43.19 	 -259.7 	
-1656 	 -674 	 -784 	 80.57 	 -41.335 	 -244.615 	
-1715 	 -643 	 -694 	 83.755 	 -38.115 	 -228.585 	
-1708 	 -620 	 -619 	 88.76 	 -33.915 	 -211.96 	
-1679 	 -573 	 -562 	 94.745 	 -28.91 	 -196.14 	
-1684 	 -515 	 -498 	 100.73 	 -23.87 	 -181.3 	
-1699 	 -462 	 -431 	 106.75 	 -19.81 	 -166.25 	
-1672 	 -402 	 -371 	 112.42 	 -17.57 	 -150.605 	
-1611 	 -342 	 -318 	 117.6 	 -17.255 	 -135.765 	
-1575 	 -282 	 -256 	 122.255 	 -18.235 	 -122.57 	
-1562 	 -211 	 -215 	 126.63 	 -19.775 	 -110.04 	
-1538 	 -149 	 -218 	 130.305 	 -21.0 	 -97.615 	
-1498 	 -108 	 -241 	 132.755 	 -21.175 	 -85.61 	
-1437 	 -108 	 -262 	 133.805 	 -20.335 	 -74.305 	
-1380 	 -107 	 -275 	 134.015 	 -17.64 	 -64.925 	
-1360 	 -45 	 -256 	 133.7 	 -12.25 	 -57.225 	
-1331 	 47 	 -235 	 133.175 	 -3.745 	 -49.735 	
-1289 	 105 	 -226 	 132.335 	 7.455 	 -42.315 	
-1253 	 115 	 -222 	 130.55 	 18.9 	 -35.7 	
-1251 	 102 	 -180 	 127.365 	 27.895 	 -30.205 	
-1278 	 108 	 -123 	 124.11 	 31.43 	 -25.375 	
-1315 	 129 	 -88 	 121.38 	 28.665 	 -20.825 	
-1312 	 138 	 -77 	 118.265 	 20.72 	 -16.345 	
-1299 	 116 	 -48 	 114.94 	 10.08 	 -12.95 	
-1232 	 101 	 -71 	 112.63 	 -1.505 	 -9.24 	
-1192 	 87 	 -83 	 110.53 	 -11.375 	 -6.965 	
-1154 	 74 	 -101 	 108.43 	 -18.9 	 -5.25 	
-1118 	 56 	 -112 	 106.855 	 -23.835 	 -4.235 	
-1103 	 33 	 -110 	 105.49 	 -26.18 	 -4.235 	
-1096 	 6 	 -114 	 105.035 	 -26.495 	 -4.095 	
-1078 	 -37 	 -149 	 105.315 	 -25.305 	 -4.06 	
-1049 	 -119 	 -203 	 105.98 	 -21.945 	 -4.69 	
-1065 	 -250 	 -306 	 107.52 	 -16.52 	 -6.405 	
-1155 	 -452 	 -497 	 110.215 	 -8.785 	 -8.26 	
-1250 	 -761 	 -759 	 113.365 	 0.49 	 -8.89 	
-1174 	 -1174 	 -1081 	 117.18 	 9.87 	 -6.825 	
-972 	 -1644 	 -1535 	 123.865 	 19.915 	 -2.975 	
-824 	 -2216 	 -2301 	 133.28 	 32.06 	 0.56 	
-748 	 -3344 	 -3329 	 140.49 	 51.87 	 9.765 	
-159 	 -4646 	 -4132 	 141.47 	 85.12 	 29.225 	
1143 	 -4983 	 -4519 	 131.74 	 129.465 	 47.18 	
1465 	 -4546 	 -4464 	 115.395 	 180.565 	 48.475 	
-184 	 -4190 	 -3958 	 92.05 	 214.06 	 48.23 	
-1620 	 -3862 	 -3579 	 51.625 	 184.45 	 69.685 	
-1710 	 -3338 	 -3490 	 -7.77 	 88.48 	 96.74 	
-1481 	 -2880 	 -3312 	 -81.83 	 -42.035 	 103.67 	
-1586 	 -2109 	 -3395 	 -165.06 	 -164.255 	 102.97 	
-1085 	 -1592 	 -3953 	 -256.27 	 -246.19 	 116.34 	
-528 	 -1206 	 -4162 	 -358.12 	 -268.31 	 129.465 	
-561 	 -1022 	 -3699 	 -466.375 	 -256.095 	 131.46 	
-1422 	 -529 	 -3019 	 -566.195 	 -242.165 	 127.365 	
-2490 	 150 	 -2538 	 -659.925 	 -248.85 	 132.125 	
-2914 	 553 	 -1958 	 -752.22 	 -271.11 	 149.905 	
-2580 	 650 	 -1428 	 -835.905 	 -290.64 	 168.245 	
-2057 	 509 	 -1086 	 -908.18 	 -289.24 	 178.885 	
-1735 	 21 	 -505 	 -966.455 	 -255.99 	 189.385 	
-1378 	 -437 	 460 	 -1002.16 	 -191.66 	 205.1 	
-744 	 -1182 	 1514 	 -1008.63 	 -101.325 	 220.92 	
-408 	 -1924 	 2553 	 -987.42 	 2.345 	 226.03 	
-499 	 -2247 	 3437 	 -945.875 	 92.12 	 218.26 	
-1057 	 -2466 	 4424 	 -885.465 	 142.835 	 204.575 	
-1686 	 -2358 	 5430 	 -805.665 	 136.325 	 194.915 	
-1858 	 -2109 	 6520 	 -706.16 	 74.165 	 198.03 	
-1372 	 -1790 	 7098 	 -588.98 	 -14.14 	 210.665 	
-891 	 -1473 	 7381 	 -463.61 	 -98.98 	 221.795 	
-537 	 -1342 	 7434 	 -332.57 	 -167.055 	 230.405 	
-333 	 -1144 	 7104 	 -197.365 	 -207.515 	 236.845 	
118 	 -1035 	 6754 	 -64.295 	 -219.03 	 240.8 	
622 	 -1053 	 6418 	 64.855 	 -204.12 	 233.485 	
804 	 -947 	 5787 	 188.055 	 -168.28 	 214.655 	
696 	 -846 	 5003 	 297.045 	 -120.96 	 191.275 	
547 	 -764 	 4417 	 388.01 	 -74.41 	 166.565 	
426 	 -582 	 3961 	 465.08 	 -36.05 	 138.845 	
252 	 -330 	 3449 	 529.83 	 -10.605 	 109.2 	
250 	 -91 	 2639 	 579.635 	 1.26 	 80.22 	
266 	 32 	 1839 	 611.8 	 7.98 	 51.03 	
297 	 -28 	 1028 	 629.09 	 10.64 	 21.665 	
319 	 -165 	 195 	 635.285 	 14.175 	 -7.875 	
372 	 -303 	 -556 	 629.965 	 22.295 	 -37.765 	
368 	 -300 	 -1061 	 614.145 	 36.82 	 -66.85 	
306 	 -244 	 -1287 	 593.18 	 56.0 	 -92.12 	
280 	 -177 	 -1479 	 568.155 	 73.15 	 -113.82 	
182 	 -78 	 -1663 	 538.16 	 85.785 	 -132.475 	
-40 	 -30 	 -1678 	 501.235 	 88.795 	 -147.595 	
-265 	 3 	 -1588 	 459.9 	 79.135 	 -158.795 	
-389 	 57 	 -1549 	 417.62 	 58.205 	 -166.32 	
-437 	 76 	 -1605 	 373.205 	 30.625 	 -172.165 	
-500 	 101 	 -1611 	 327.25 	 3.675 	 -176.365 	
-537 	 137 	 -1583 	 282.135 	 -18.41 	 -177.17 	
-548 	 116 	 -1554 	 239.575 	 -34.755 	 -175.35 	
-607 	 63 	 -1561 	 199.29 	 -46.69 	 -173.04 	
-757 	 0 	 -1525 	 161.14 	 -55.965 	 -169.155 	
-864 	 -111 	 -1443 	 126.77 	 -65.1 	 -161.595 	
-894 	 -280 	 -1405 	 98.175 	 -74.76 	 -151.62 	
-927 	 -444 	 -1393 	 74.655 	 -84.56 	 -141.82 	
-1018 	 -592 	 -1330 	 55.475 	 -94.57 	 -132.09 	
-1124 	 -702 	 -1220 	 41.265 	 -104.055 	 -121.03 	
-1170 	 -792 	 -1117 	 31.78 	 -112.455 	 -109.27 	
-1201 	 -836 	 -1031 	 26.355 	 -118.93 	 -97.86 	
-1243 	 -879 	 -927 	 23.59 	 -123.2 	 -87.57 	
-1314 	 -894 	 -852 	 24.045 	 -124.355 	 -78.26 	
-1374 	 -882 	 -789 	 25.865 	 -121.73 	 -69.09 	
-1353 	 -876 	 -744 	 29.295 	 -115.325 	 -61.145 	
-1366 	 -816 	 -671 	 33.6 	 -103.88 	 -55.195 	
-1348 	 -734 	 -620 	 38.57 	 -88.83 	 -50.19 	
-1353 	 -643 	 -552 	 44.135 	 -70.56 	 -46.06 	
-1350 	 -570 	 -519 	 50.085 	 -50.715 	 -42.175 	
-1308 	 -514 	 -486 	 55.23 	 -31.045 	 -38.57 	
-1275 	 -445 	 -403 	 59.57 	 -13.37 	 -35.91 	
-1301 	 -364 	 -315 	 64.015 	 0.385 	 -33.95 	
-1331 	 -270 	 -259 	 68.11 	 9.485 	 -31.22 	
-1305 	 -187 	 -210 	 71.155 	 14.14 	 -27.965 	
-1266 	 -121 	 -158 	 73.815 	 15.715 	 -25.41 	
-1248 	 -48 	 -128 	 76.195 	 15.89 	 -23.38 	
-1217 	 19 	 -117 	 77.84 	 15.96 	 -20.895 	
-1163 	 64 	 -99 	 79.1 	 16.485 	 -18.41 	
-1119 	 96 	 -81 	 80.15 	 17.92 	 -16.485 	
-1102 	 127 	 -64 	 80.815 	 19.74 	 -15.12 	
-1094 	 164 	 -34 	 81.41 	 21.7 	 -13.86 	
-1088 	 189 	 -11 	 81.865 	 23.975 	 -12.88 	
-1066 	 193 	 0 	 82.635 	 26.39 	 -11.725 	
-1047 	 187 	 4 	 83.51 	 28.945 	 -10.78 	
-1030 	 172 	 13 	 84.385 	 31.255 	 -10.185 	
-1018 	 159 	 15 	 85.75 	 33.18 	 -10.01 	
-1033 	 145 	 23 	 87.465 	 34.685 	 -10.29 	
-1052 	 122 	 -3 	 90.3 	 35.175 	 -10.115 	
-1072 	 36 	 -105 	 93.975 	 34.825 	 -9.905 	
-1167 	 -179 	 -258 	 98.0 	 32.9 	 -10.325 	
-1337 	 -554 	 -479 	 103.04 	 28.175 	 -10.185 	
-1383 	 -1035 	 -881 	 111.265 	 18.515 	 -8.33 	
-1400 	 -1640 	 -1480 	 122.08 	 5.25 	 -6.195 	
-1431 	 -2438 	 -2196 	 132.09 	 -8.365 	 -3.465 	
-1381 	 -3572 	 -2932 	 139.825 	 -15.19 	 2.1 	
-1254 	 -4709 	 -3661 	 144.13 	 -6.055 	 7.77 	
-1057 	 -4984 	 -4538 	 140.105 	 22.61 	 9.625 	
-938 	 -4384 	 -5046 	 123.97 	 72.135 	 9.625 	
-1133 	 -3816 	 -4938 	 96.565 	 135.73 	 11.165 	
-1829 	 -3274 	 -4767 	 58.765 	 200.865 	 14.14 	
-2071 	 -2996 	 -4428 	 5.95 	 234.745 	 22.435 	
-2247 	 -2642 	 -4210 	 -63.0 	 233.03 	 24.465 	
-2360 	 -2169 	 -3873 	 -149.205 	 193.585 	 24.745 	
-2122 	 -1830 	 -3364 	 -245.91 	 128.345 	 30.73 	
-1429 	 -1521 	 -3258 	 -345.695 	 54.95 	 37.345 	
-1075 	 -1122 	 -3262 	 -450.8 	 -9.065 	 37.905 	
-1250 	 -685 	 -2720 	 -561.96 	 -65.625 	 39.375 	
-1568 	 -172 	 -1845 	 -666.365 	 -120.365 	 48.825 	
-1606 	 288 	 -1230 	 -756.105 	 -170.31 	 65.135 	
-1378 	 608 	 -988 	 -837.655 	 -210.105 	 82.95 	
-1185 	 648 	 -536 	 -914.585 	 -229.67 	 101.64 	
-1124 	 543 	 332 	 -976.675 	 -222.635 	 124.985 	
-762 	 364 	 1327 	 -1016.37 	 -192.885 	 154.805 	
-161 	 -112 	 2643 	 -1030.05 	 -139.965 	 182.77 	
95 	 -781 	 3918 	 -1012.17 	 -71.05 	 200.375 	
-4 	 -1282 	 4698 	 -965.685 	 0.735 	 209.37 	
-173 	 -1712 	 5253 	 -898.905 	 54.67 	 212.765 	
-569 	 -2109 	 6192 	 -811.755 	 73.255 	 210.14 	
-1045 	 -2260 	 6847 	 -700.42 	 44.38 	 206.325 	
-1192 	 -1799 	 6703 	 -577.71 	 -13.44 	 210.315 	
-797 	 -1582 	 7309 	 -453.495 	 -86.59 	 218.855 	
-254 	 -1420 	 7844 	 -310.275 	 -152.285 	 221.795 	
207 	 -1146 	 7299 	 -152.81 	 -190.225 	 215.635 	
386 	 -965 	 6451 	 -5.81 	 -190.33 	 203.35 	
625 	 -990 	 6169 	 125.545 	 -161.28 	 186.9 	
871 	 -1026 	 5809 	 251.405 	 -115.36 	 162.505 	
876 	 -941 	 4894 	 365.295 	 -64.085 	 129.885 	
608 	 -797 	 4094 	 456.19 	 -15.015 	 95.55 	
309 	 -613 	 3717 	 529.585 	 22.19 	 64.4 	
158 	 -410 	 3227 	 593.145 	 35.84 	 34.755 	
122 	 -176 	 2359 	 640.255 	 31.01 	 4.935 	
119 	 -3 	 1597 	 663.04 	 16.835 	 -23.975 	
220 	 45 	 1078 	 669.655 	 4.375 	 -51.415 	
391 	 127 	 363 	 667.52 	 4.55 	 -78.715 	
500 	 231 	 -444 	 654.465 	 22.4 	 -104.615 	
472 	 166 	 -918 	 629.615 	 52.745 	 -127.26 	
323 	 52 	 -1097 	 600.495 	 82.67 	 -144.515 	
79 	 -28 	 -1327 	 571.55 	 99.19 	 -158.095 	
-257 	 -71 	 -1519 	 537.425 	 97.475 	 -168.98 	
-439 	 -144 	 -1568 	 496.335 	 76.265 	 -173.845 	
-432 	 -300 	 -1588 	 456.085 	 43.96 	 -176.295 	
-417 	 -403 	 -1849 	 417.235 	 10.22 	 -179.725 	
-456 	 -486 	 -2112 	 374.85 	 -17.01 	 -182.875 	
-515 	 -543 	 -2140 	 330.645 	 -33.775 	 -183.575 	
-571 	 -525 	 -2093 	 288.925 	 -41.265 	 -182.665 	
-678 	 -450 	 -2037 	 249.55 	 -41.44 	 -181.265 	
-847 	 -392 	 -1935 	 212.1 	 -38.01 	 -178.395 	
-977 	 -357 	 -1842 	 177.17 	 -34.895 	 -172.935 	
-1040 	 -348 	 -1714 	 144.69 	 -34.16 	 -166.075 	
-1092 	 -382 	 -1564 	 115.08 	 -36.225 	 -159.705 	
-1170 	 -398 	 -1452 	 89.285 	 -40.88 	 -153.16 	
-1224 	 -418 	 -1346 	 67.095 	 -46.515 	 -145.18 	
-1238 	 -465 	 -1226 	 48.545 	 -51.205 	 -136.5 	
-1237 	 -486 	 -1120 	 33.95 	 -53.865 	 -127.925 	
-1249 	 -501 	 -999 	 22.995 	 -54.635 	 -119.7 	
-1303 	 -515 	 -842 	 16.73 	 -53.725 	 -110.845 	
-1309 	 -514 	 -759 	 13.23 	 -52.535 	 -101.675 	
-1305 	 -519 	 -658 	 11.515 	 -51.065 	 -92.925 	
-1325 	 -521 	 -513 	 12.11 	 -49.49 	 -85.05 	
-1330 	 -487 	 -419 	 15.575 	 -48.055 	 -76.93 	
-1316 	 -452 	 -368 	 20.055 	 -47.075 	 -69.195 	
-1315 	 -425 	 -290 	 24.85 	 -46.445 	 -62.265 	
-1333 	 -388 	 -197 	 30.66 	 -45.675 	 -56.035 	
-1338 	 -342 	 -156 	 37.275 	 -44.485 	 -50.015 	
-1303 	 -303 	 -159 	 43.715 	 -41.86 	 -43.925 	
-1250 	 -289 	 -154 	 49.805 	 -36.89 	 -38.57 	
-1216 	 -266 	 -153 	 55.86 	 -28.91 	 -34.58 	
-1198 	 -210 	 -153 	 61.81 	 -17.955 	 -30.975 	
-1154 	 -150 	 -140 	 67.48 	 -5.11 	 -26.845 	
-1115 	 -110 	 -122 	 72.695 	 7.945 	 -23.135 	
-1126 	 -86 	 -95 	 77.49 	 18.865 	 -19.915 	
-1139 	 -61 	 -79 	 81.76 	 26.18 	 -16.555 	
-1124 	 -42 	 -66 	 85.47 	 30.03 	 -13.125 	
-1100 	 -22 	 -66 	 89.04 	 31.01 	 -10.325 	
-1090 	 -6 	 -72 	 92.155 	 30.625 	 -7.98 	
-1075 	 1 	 -83 	 94.85 	 29.82 	 -5.705 	
-1049 	 2 	 -95 	 97.3 	 28.84 	 -3.71 	
-1032 	 5 	 -106 	 99.33 	 28.0 	 -2.415 	
-1028 	 16 	 -115 	 101.325 	 26.705 	 -1.33 	
-1026 	 14 	 -115 	 102.9 	 24.885 	 -0.42 	
-1026 	 3 	 -104 	 104.3 	 21.735 	 0.21 	
-1022 	 -16 	 -95 	 105.455 	 16.73 	 0.525 	
-1041 	 -52 	 -147 	 107.03 	 9.485 	 0.49 	
-1093 	 -140 	 -256 	 108.71 	 0.175 	 0.21 	
-1172 	 -305 	 -372 	 109.76 	 -10.115 	 -0.21 	
-1236 	 -569 	 -575 	 111.965 	 -20.37 	 -0.7 	
-1276 	 -966 	 -1002 	 116.305 	 -28.35 	 -0.49 	
-1267 	 -1574 	 -1631 	 120.575 	 -31.395 	 0.42 	
-1170 	 -2474 	 -2365 	 123.445 	 -26.11 	 2.765 	
-896 	 -3616 	 -3195 	 125.405 	 -6.23 	 6.755 	
-419 	 -4568 	 -4201 	 127.75 	 36.715 	 12.53 	
173 	 -4880 	 -4932 	 122.08 	 106.61 	 19.81 	
236 	 -4723 	 -5039 	 102.865 	 196.105 	 23.24 	
-336 	 -4306 	 -4845 	 76.02 	 277.48 	 28.14 	
-1014 	 -3913 	 -4559 	 38.815 	 315.21 	 37.415 	
-1817 	 -3698 	 -3930 	 -16.24 	 286.44 	 42.735 	
-2471 	 -3375 	 -3412 	 -82.95 	 196.455 	 47.215 	
-2276 	 -2755 	 -3391 	 -162.33 	 71.75 	 58.065 	
-1511 	 -2343 	 -3564 	 -255.885 	 -42.315 	 65.555 	
-1008 	 -1934 	 -3556 	 -355.6 	 -113.575 	 64.96 	
-1114 	 -1428 	 -3535 	 -456.68 	 -145.25 	 62.125 	
-1633 	 -926 	 -3422 	 -562.24 	 -157.955 	 63.28 	
-2119 	 -575 	 -2760 	 -669.62 	 -174.405 	 71.89 	
-2186 	 -245 	 -1809 	 -768.145 	 -203.28 	 83.615 	
-2252 	 182 	 -1244 	 -852.6 	 -234.115 	 92.33 	
-2388 	 420 	 -1058 	 -930.3 	 -259.665 	 106.505 	
-2257 	 273 	 -528 	 -1003.38 	 -274.435 	 131.46 	
-1821 	 -112 	 328 	 -1056.41 	 -271.705 	 161.035 	
-1251 	 -492 	 1176 	 -1080.73 	 -245.91 	 192.675 	
-256 	 -1317 	 2079 	 -1080.87 	 -187.67 	 230.65 	
744 	 -2404 	 3339 	 -1054.41 	 -92.89 	 259.595 	
853 	 -2808 	 4041 	 -995.505 	 17.115 	 262.22 	
8 	 -2547 	 4414 	 -924.315 	 104.16 	 253.155 	
-1205 	 -2698 	 5713 	 -843.22 	 131.6 	 250.11 	
-1806 	 -2785 	 7218 	 -733.635 	 86.94 	 256.305 	
-1313 	 -2331 	 7227 	 -602.49 	 -5.635 	 268.31 	
-911 	 -1952 	 7290 	 -472.5 	 -101.57 	 271.495 	
-623 	 -1703 	 7699 	 -338.1 	 -177.94 	 273.28 	
-25 	 -1410 	 7538 	 -188.405 	 -218.575 	 273.98 	
685 	 -1176 	 6718 	 -39.06 	 -212.065 	 263.865 	
1192 	 -1064 	 6171 	 91.98 	 -169.33 	 241.115 	
1306 	 -963 	 6087 	 210.455 	 -109.235 	 211.925 	
1203 	 -842 	 5582 	 321.475 	 -55.195 	 181.545 	
994 	 -746 	 4788 	 414.19 	 -20.58 	 150.605 	
759 	 -611 	 4231 	 486.115 	 -9.17 	 117.985 	
534 	 -418 	 3779 	 547.82 	 -19.46 	 84.525 	
510 	 -191 	 2876 	 600.67 	 -39.795 	 51.625 	
607 	 -48 	 1866 	 633.185 	 -59.71 	 18.34 	
714 	 -95 	 1202 	 645.96 	 -73.395 	 -16.8 	
752 	 -33 	 564 	 648.62 	 -76.93 	 -53.97 	
662 	 124 	 -72 	 641.445 	 -69.265 	 -89.635 	
563 	 160 	 -568 	 623.455 	 -52.395 	 -120.085 	
506 	 161 	 -926 	 599.585 	 -29.715 	 -147.455 	
295 	 198 	 -1209 	 571.62 	 -5.46 	 -172.865 	
10 	 170 	 -1396 	 539.49 	 14.875 	 -192.5 	
-180 	 90 	 -1541 	 504.35 	 27.125 	 -205.38 	
-287 	 45 	 -1687 	 467.39 	 30.45 	 -214.095 	
-371 	 -19 	 -1751 	 428.995 	 25.62 	 -222.04 	
-488 	 -27 	 -1718 	 390.845 	 15.925 	 -227.64 	
-588 	 -82 	 -1728 	 354.795 	 4.76 	 -229.32 	
-649 	 -131 	 -1878 	 319.865 	 -4.97 	 -228.06 	
-702 	 -221 	 -1944 	 284.76 	 -10.465 	 -224.875 	
-700 	 -318 	 -1856 	 251.44 	 -12.25 	 -220.465 	
-762 	 -345 	 -1716 	 222.74 	 -11.305 	 -215.67 	
-924 	 -323 	 -1604 	 197.575 	 -10.22 	 -209.65 	
-1073 	 -336 	 -1475 	 174.65 	 -12.005 	 -201.215 	
-1167 	 -395 	 -1324 	 154.0 	 -17.71 	 -191.52 	
-1196 	 -450 	 -1195 	 135.52 	 -27.685 	 -182.07 	
-1258 	 -462 	 -1071 	 120.225 	 -39.76 	 -173.565 	
-1357 	 -442 	 -995 	 108.01 	 -51.73 	 -165.305 	
-1401 	 -405 	 -925 	 97.72 	 -61.74 	 -155.365 	
-1358 	 -412 	 -843 	 89.25 	 -68.11 	 -145.32 	
-1357 	 -410 	 -779 	 83.195 	 -69.755 	 -137.48 	
-1414 	 -380 	 -779 	 78.47 	 -67.2 	 -130.2 	
-1411 	 -386 	 -748 	 74.235 	 -61.495 	 -121.345 	
-1329 	 -411 	 -641 	 71.54 	 -53.375 	 -112.945 	
-1302 	 -379 	 -567 	 70.875 	 -43.61 	 -106.995 	
-1349 	 -310 	 -527 	 71.295 	 -33.285 	 -100.905 	
-1348 	 -283 	 -472 	 71.925 	 -23.52 	 -93.275 	
-1287 	 -287 	 -415 	 73.15 	 -14.84 	 -85.995 	
-1259 	 -281 	 -377 	 75.25 	 -7.0 	 -80.15 	
-1284 	 -255 	 -358 	 77.735 	 0.105 	 -74.76 	
-1285 	 -217 	 -322 	 80.115 	 6.3 	 -68.565 	
-1218 	 -195 	 -286 	 82.705 	 11.97 	 -62.195 	
-1162 	 -172 	 -237 	 85.54 	 17.22 	 -57.225 	
-1152 	 -146 	 -219 	 88.76 	 21.28 	 -52.675 	
-1176 	 -103 	 -200 	 91.7 	 23.87 	 -47.915 	
-1164 	 -92 	 -177 	 94.22 	 24.185 	 -42.035 	
-1103 	 -111 	 -142 	 96.145 	 22.295 	 -36.435 	
-1071 	 -116 	 -92 	 97.79 	 18.13 	 -32.305 	
-1105 	 -79 	 -65 	 99.855 	 11.83 	 -28.875 	
-1131 	 -38 	 -81 	 101.675 	 4.165 	 -24.605 	
-1097 	 -18 	 -89 	 102.795 	 -3.605 	 -19.67 	
-1034 	 -25 	 -88 	 103.705 	 -10.71 	 -15.715 	
-1008 	 -25 	 -96 	 104.895 	 -16.065 	 -12.915 	
-997 	 -15 	 -126 	 106.015 	 -19.67 	 -10.22 	
-972 	 -14 	 -146 	 106.82 	 -21.42 	 -7.28 	
-941 	 -36 	 -157 	 107.66 	 -21.945 	 -5.04 	
-928 	 -51 	 -178 	 108.815 	 -21.28 	 -3.605 	
-930 	 -59 	 -198 	 110.145 	 -19.915 	 -2.625 	
-935 	 -73 	 -213 	 111.3 	 -17.57 	 -1.925 	
-965 	 -122 	 -243 	 112.77 	 -14.595 	 -1.68 	
-1033 	 -236 	 -335 	 114.765 	 -11.48 	 -1.855 	
-1077 	 -406 	 -462 	 116.9 	 -9.24 	 -1.715 	
-1074 	 -587 	 -563 	 119.595 	 -7.945 	 -1.785 	
-1115 	 -816 	 -718 	 124.215 	 -7.175 	 -3.185 	
-1268 	 -1222 	 -1028 	 130.235 	 -6.265 	 -4.2 	
-1419 	 -1998 	 -1538 	 135.45 	 -5.355 	 -1.995 	
-1349 	 -3047 	 -2266 	 139.965 	 -3.675 	 4.27 	
-1109 	 -4041 	 -3013 	 144.69 	 3.5 	 10.22 	
-831 	 -4873 	 -3748 	 147.595 	 22.89 	 14.0 	
-584 	 -5283 	 -4453 	 143.64 	 60.655 	 19.705 	
-16 	 -5079 	 -5051 	 128.835 	 114.45 	 31.885 	
364 	 -4598 	 -5089 	 101.99 	 181.335 	 45.29 	
-259 	 -4186 	 -4525 	 61.81 	 238.77 	 54.04 	
-1116 	 -3928 	 -3691 	 5.985 	 245.0 	 63.28 	
-1957 	 -3261 	 -3220 	 -62.37 	 184.8 	 73.92 	
-2252 	 -2888 	 -2943 	 -145.18 	 65.345 	 87.5 	
-1816 	 -2338 	 -3082 	 -237.09 	 -74.375 	 101.815 	
-1098 	 -1989 	 -3257 	 -336.245 	 -184.66 	 113.33 	
-726 	 -1690 	 -3436 	 -437.885 	 -237.265 	 119.35 	
-946 	 -1121 	 -3477 	 -540.61 	 -237.825 	 124.67 	
-1535 	 -628 	 -2908 	 -645.19 	 -216.195 	 130.97 	
-2055 	 -242 	 -1906 	 -742.7 	 -199.745 	 139.685 	
-2155 	 67 	 -1161 	 -827.47 	 -204.435 	 151.76 	
-1987 	 230 	 -724 	 -905.065 	 -230.09 	 163.24 	
-1969 	 289 	 13 	 -974.435 	 -263.095 	 173.46 	
-1915 	 429 	 1110 	 -1027.46 	 -289.975 	 189.7 	
-1256 	 423 	 2185 	 -1056.97 	 -290.255 	 218.365 	
67 	 -194 	 3159 	 -1059.35 	 -239.505 	 250.46 	
1112 	 -983 	 3918 	 -1034.71 	 -132.16 	 265.195 	
1251 	 -1369 	 4237 	 -984.795 	 10.99 	 256.865 	
683 	 -1778 	 4771 	 -918.855 	 148.225 	 238.035 	
-102 	 -2372 	 5584 	 -833.21 	 230.51 	 216.195 	
-909 	 -2637 	 6790 	 -721.245 	 238.91 	 194.25 	
-960 	 -2427 	 6765 	 -589.68 	 184.485 	 180.705 	
-1050 	 -2159 	 6849 	 -461.685 	 103.215 	 170.345 	
-669 	 -1823 	 7359 	 -331.275 	 16.205 	 165.2 	
-69 	 -1298 	 7435 	 -185.745 	 -39.76 	 161.945 	
445 	 -939 	 7021 	 -38.01 	 -54.53 	 155.68 	
593 	 -848 	 6500 	 97.755 	 -39.445 	 143.64 	
455 	 -785 	 6026 	 219.415 	 -15.085 	 128.31 	
236 	 -744 	 5444 	 329.07 	 3.675 	 112.07 	
114 	 -699 	 4513 	 423.325 	 8.575 	 95.34 	
-23 	 -660 	 3695 	 497.105 	 3.08 	 76.02 	
-208 	 -528 	 3168 	 556.255 	 -10.99 	 54.075 	
-273 	 -283 	 2511 	 606.55 	 -33.39 	 32.515 	
-106 	 -157 	 1653 	 641.655 	 -54.985 	 12.845 	
168 	 -140 	 821 	 656.67 	 -69.335 	 -8.505 	
310 	 -79 	 207 	 658.385 	 -67.41 	 -33.11 	
326 	 -13 	 -314 	 652.575 	 -49.0 	 -55.86 	
336 	 20 	 -806 	 637.98 	 -19.985 	 -74.9 	
264 	 46 	 -1199 	 615.3 	 13.685 	 -92.54 	
45 	 87 	 -1348 	 587.3 	 42.98 	 -106.435 	
-202 	 123 	 -1387 	 557.13 	 58.415 	 -115.22 	
-345 	 83 	 -1420 	 524.405 	 56.595 	 -121.38 	
-489 	 -51 	 -1417 	 488.53 	 37.59 	 -126.35 	
-690 	 -136 	 -1550 	 451.465 	 5.425 	 -132.16 	
-816 	 -239 	 -1777 	 411.985 	 -29.61 	 -134.96 	
-725 	 -269 	 -2017 	 369.985 	 -55.65 	 -137.06 	
-573 	 -247 	 -2056 	 328.755 	 -61.46 	 -140.525 	
-516 	 -179 	 -2052 	 291.165 	 -47.25 	 -144.655 	
-622 	 -123 	 -2043 	 256.095 	 -20.79 	 -147.63 	
-785 	 -119 	 -1963 	 221.725 	 5.39 	 -148.435 	
-978 	 -148 	 -1766 	 188.79 	 21.945 	 -148.19 	
-1133 	 -159 	 -1555 	 158.55 	 24.325 	 -146.86 	
-1203 	 -180 	 -1396 	 131.005 	 14.7 	 -144.025 	
-1177 	 -236 	 -1286 	 106.47 	 -0.735 	 -140.665 	
-1131 	 -279 	 -1215 	 84.91 	 -16.135 	 -138.25 	
-1146 	 -290 	 -1156 	 66.01 	 -28.28 	 -136.29 	
-1180 	 -294 	 -1067 	 49.63 	 -35.84 	 -132.755 	
-1170 	 -312 	 -980 	 36.19 	 -39.76 	 -128.03 	
-1170 	 -331 	 -912 	 24.745 	 -41.3 	 -123.97 	
-1214 	 -353 	 -826 	 15.75 	 -41.895 	 -119.805 	
-1232 	 -379 	 -740 	 9.345 	 -42.35 	 -114.625 	
-1226 	 -403 	 -670 	 5.005 	 -42.035 	 -109.41 	
-1216 	 -414 	 -608 	 2.24 	 -40.635 	 -104.125 	
-1200 	 -431 	 -546 	 1.225 	 -37.94 	 -98.63 	
-1198 	 -429 	 -480 	 2.17 	 -33.46 	 -93.205 	
-1188 	 -411 	 -457 	 4.27 	 -27.72 	 -87.605 	
-1168 	 -396 	 -403 	 6.475 	 -20.685 	 -82.18 	
-1159 	 -396 	 -317 	 10.185 	 -12.67 	 -76.72 	
-1160 	 -373 	 -274 	 15.225 	 -4.305 	 -71.855 	
-1155 	 -333 	 -257 	 20.79 	 4.13 	 -66.78 	
-1130 	 -312 	 -231 	 26.11 	 12.18 	 -61.32 	
-1101 	 -313 	 -181 	 31.92 	 19.11 	 -56.0 	
-1096 	 -302 	 -128 	 38.115 	 24.08 	 -50.995 	
-1115 	 -281 	 -78 	 44.38 	 26.285 	 -46.235 	
-1145 	 -238 	 -23 	 50.505 	 25.55 	 -41.475 	
-1174 	 -194 	 11 	 56.56 	 22.365 	 -36.61 	
-1176 	 -156 	 17 	 62.58 	 17.57 	 -31.85 	
-1154 	 -132 	 2 	 68.355 	 12.95 	 -27.405 	
-1122 	 -121 	 -13 	 73.885 	 9.59 	 -23.52 	
-1103 	 -123 	 -26 	 79.17 	 8.085 	 -20.16 	
-1100 	 -146 	 -54 	 84.49 	 8.05 	 -17.01 	
-1128 	 -212 	 -114 	 90.37 	 8.33 	 -13.965 	
-1215 	 -404 	 -240 	 96.845 	 7.245 	 -11.2 	
-1339 	 -780 	 -501 	 103.88 	 2.905 	 -7.455 	
-1412 	 -1328 	 -855 	 112.49 	 -5.32 	 -1.47 	
-1403 	 -2015 	 -1308 	 122.605 	 -16.065 	 4.13 	
-1456 	 -2839 	 -1784 	 131.67 	 -26.53 	 9.03 	
-1301 	 -3878 	 -2416 	 137.41 	 -32.27 	 20.37 	
-685 	 -4604 	 -3207 	 140.945 	 -26.6 	 34.895 	
25 	 -4496 	 -4121 	 137.585 	 -2.31 	 42.735 	
257 	 -3792 	 -4635 	 120.785 	 45.045 	 50.435 	
197 	 -3312 	 -4414 	 90.755 	 102.83 	 70.245 	
-227 	 -3065 	 -3989 	 50.365 	 143.675 	 91.14 	
-831 	 -3123 	 -3412 	 -2.17 	 129.605 	 104.335 	
-1711 	 -2753 	 -3323 	 -68.67 	 51.135 	 114.275 	
-1915 	 -2411 	 -3347 	 -153.405 	 -77.805 	 132.86 	
-1390 	 -2073 	 -3446 	 -249.34 	 -214.97 	 153.895 	
-714 	 -1770 	 -3487 	 -348.67 	 -314.405 	 168.875 	
-570 	 -1375 	 -3779 	 -449.015 	 -360.045 	 176.12 	
-1192 	 -831 	 -3697 	 -554.82 	 -361.375 	 185.115 	
-1782 	 -425 	 -2976 	 -662.2 	 -348.32 	 199.71 	
-2097 	 -100 	 -1910 	 -756.28 	 -334.705 	 214.69 	
-2028 	 324 	 -1372 	 -837.06 	 -327.39 	 224.56 	
-2090 	 646 	 -946 	 -914.9 	 -320.145 	 229.425 	
-2192 	 748 	 -180 	 -988.225 	 -305.69 	 236.67 	
-1664 	 520 	 674 	 -1043.38 	 -273.315 	 250.25 	
-144 	 -187 	 1557 	 -1071.6 	 -205.03 	 263.97 	
1292 	 -1415 	 2542 	 -1070.34 	 -86.625 	 262.78 	
1530 	 -2399 	 3270 	 -1036.49 	 65.59 	 239.96 	
1004 	 -2988 	 3443 	 -977.62 	 211.085 	 206.01 	
64 	 -3315 	 4158 	 -904.295 	 303.205 	 163.625 	
-1037 	 -3648 	 5660 	 -808.325 	 308.105 	 121.59 	
-1165 	 -3361 	 6242 	 -681.59 	 240.24 	 94.465 	
-857 	 -2585 	 5944 	 -554.155 	 150.57 	 74.83 	
-620 	 -2184 	 6500 	 -435.715 	 72.415 	 62.44 	
-138 	 -1720 	 7407 	 -299.81 	 25.34 	 56.245 	
387 	 -1004 	 7189 	 -145.285 	 21.315 	 50.085 	
345 	 -732 	 6395 	 -1.05 	 47.67 	 42.315 	
-9 	 -682 	 5959 	 120.505 	 76.93 	 37.52 	
-223 	 -641 	 5907 	 228.76 	 90.58 	 35.7 	
-277 	 -534 	 5611 	 331.59 	 83.51 	 33.95 	
-348 	 -387 	 4761 	 422.45 	 63.07 	 32.935 	
-465 	 -358 	 3880 	 493.29 	 38.29 	 33.075 	
-556 	 -426 	 3241 	 547.89 	 9.695 	 31.675 	
-552 	 -289 	 2513 	 591.115 	 -19.495 	 25.935 	
-448 	 -61 	 1667 	 619.885 	 -41.825 	 19.74 	
-258 	 102 	 972 	 632.835 	 -48.405 	 14.315 	
-35 	 161 	 455 	 633.675 	 -37.415 	 8.05 	
113 	 208 	 -108 	 625.66 	 -16.345 	 -1.085 	
-66 	 313 	 -525 	 609.035 	 8.295 	 -12.005 	
-351 	 363 	 -688 	 584.29 	 24.15 	 -20.23 	
-489 	 349 	 -729 	 556.185 	 24.43 	 -23.695 	
-534 	 240 	 -796 	 526.925 	 10.045 	 -27.16 	
-665 	 123 	 -1028 	 496.825 	 -13.09 	 -32.445 	
-810 	 14 	 -1387 	 463.225 	 -38.57 	 -38.64 	
-799 	 -188 	 -1734 	 425.355 	 -56.735 	 -44.31 	
-675 	 -259 	 -1929 	 387.065 	 -58.31 	 -52.045 	
-570 	 -193 	 -1939 	 351.82 	 -40.145 	 -61.53 	
-604 	 -87 	 -1900 	 320.425 	 -6.475 	 -69.93 	
-716 	 -41 	 -1869 	 290.115 	 30.765 	 -74.865 	
-859 	 -97 	 -1739 	 258.755 	 58.31 	 -78.26 	
-1038 	 -161 	 -1503 	 228.585 	 67.97 	 -81.9 	
-1193 	 -163 	 -1292 	 201.74 	 59.22 	 -84.35 	
-1214 	 -150 	 -1193 	 177.1 	 38.395 	 -84.77 	
-1136 	 -172 	 -1145 	 153.825 	 14.91 	 -84.77 	
-1044 	 -194 	 -1105 	 132.44 	 -4.27 	 -85.54 	
-997 	 -191 	 -1062 	 113.54 	 -16.03 	 -86.45 	
-971 	 -181 	 -1006 	 96.565 	 -21.385 	 -86.485 	
-958 	 -182 	 -923 	 81.445 	 -22.4 	 -86.065 	
-963 	 -177 	 -823 	 68.845 	 -22.295 	 -85.645 	
-981 	 -174 	 -725 	 57.96 	 -22.4 	 -84.91 	
-995 	 -183 	 -614 	 49.035 	 -23.45 	 -83.335 	
-976 	 -199 	 -516 	 42.385 	 -25.9 	 -81.235 	
-984 	 -189 	 -417 	 37.38 	 -28.91 	 -79.73 	
-1022 	 -162 	 -354 	 34.475 	 -31.43 	 -78.4 	
-1024 	 -164 	 -336 	 32.76 	 -32.41 	 -76.335 	
-958 	 -200 	 -316 	 31.71 	 -30.555 	 -73.92 	
-920 	 -232 	 -265 	 32.025 	 -25.41 	 -72.73 	
-939 	 -229 	 -221 	 33.81 	 -17.78 	 -72.065 	
-960 	 -208 	 -191 	 36.12 	 -8.82 	 -70.91 	
-955 	 -202 	 -158 	 38.92 	 0.07 	 -69.51 	
-963 	 -211 	 -114 	 42.595 	 8.295 	 -68.635 	
-981 	 -213 	 -95 	 47.355 	 15.05 	 -68.005 	
-1004 	 -210 	 -78 	 52.01 	 20.51 	 -67.34 	
-1014 	 -213 	 -53 	 56.91 	 24.185 	 -66.43 	
-1014 	 -213 	 -36 	 62.09 	 26.39 	 -65.625 	
-1020 	 -220 	 -20 	 67.27 	 26.775 	 -64.96 	
-1031 	 -226 	 12 	 72.205 	 25.795 	 -64.26 	
-1042 	 -205 	 45 	 77.175 	 23.695 	 -64.05 	
-1074 	 -170 	 42 	 82.355 	 20.965 	 -64.19 	
-1090 	 -150 	 18 	 87.255 	 18.27 	 -63.665 	
-1067 	 -168 	 -13 	 91.63 	 16.065 	 -63.07 	
-1077 	 -237 	 -61 	 95.935 	 14.735 	 -63.315 	
-1123 	 -339 	 -148 	 100.38 	 14.105 	 -63.385 	
-1161 	 -488 	 -325 	 105.77 	 13.79 	 -62.72 	
-1194 	 -687 	 -582 	 111.51 	 14.105 	 -62.23 	
-1259 	 -983 	 -860 	 117.46 	 15.435 	 -61.46 	
-1380 	 -1511 	 -1322 	 125.44 	 18.06 	 -59.29 	
-1404 	 -2327 	 -2037 	 132.335 	 22.645 	 -53.83 	
-1033 	 -3219 	 -2734 	 132.195 	 32.305 	 -42.35 	
-378 	 -3935 	 -3345 	 131.46 	 50.89 	 -30.835 	
13 	 -4291 	 -4059 	 128.31 	 81.06 	 -23.205 	
-17 	 -4285 	 -4548 	 112.49 	 117.915 	 -13.685 	
-597 	 -4118 	 -4353 	 81.795 	 145.915 	 -1.575 	
-1386 	 -3719 	 -4024 	 38.64 	 136.92 	 15.155 	
-1751 	 -3211 	 -3503 	 -17.99 	 76.72 	 33.53 	
-2069 	 -2628 	 -3252 	 -83.405 	 -15.68 	 47.11 	
-1964 	 -1941 	 -3529 	 -159.705 	 -111.93 	 63.35 	
-1343 	 -1439 	 -3914 	 -250.67 	 -177.8 	 83.615 	
-885 	 -1191 	 -3871 	 -350.385 	 -198.135 	 99.295 	
-1099 	 -827 	 -3542 	 -449.225 	 -191.66 	 109.235 	
-1830 	 -332 	 -2978 	 -546.525 	 -190.12 	 122.325 	
-2510 	 126 	 -2071 	 -641.375 	 -210.84 	 143.22 	
-2676 	 441 	 -1311 	 -724.64 	 -246.715 	 169.715 	
-2335 	 621 	 -1123 	 -797.51 	 -280.315 	 196.315 	
-1989 	 531 	 -878 	 -866.46 	 -292.39 	 219.45 	
-1970 	 226 	 -155 	 -922.88 	 -275.73 	 242.62 	
-1690 	 77 	 675 	 -956.655 	 -234.185 	 271.53 	
-844 	 -328 	 1652 	 -968.59 	 -168.875 	 298.725 	
-202 	 -1125 	 2855 	 -956.83 	 -81.165 	 312.025 	
-44 	 -1648 	 3746 	 -918.435 	 15.365 	 313.145 	
-303 	 -2000 	 4249 	 -859.18 	 97.3 	 306.74 	
-622 	 -2251 	 4716 	 -786.94 	 136.675 	 296.415 	
-1185 	 -2322 	 5738 	 -700.63 	 123.97 	 284.025 	
-1184 	 -2217 	 6511 	 -594.195 	 63.245 	 278.53 	
-968 	 -1817 	 6467 	 -476.91 	 -13.02 	 273.525 	
-546 	 -1448 	 6771 	 -358.47 	 -81.27 	 272.09 	
160 	 -1396 	 7206 	 -228.375 	 -132.685 	 270.025 	
587 	 -1193 	 6630 	 -86.73 	 -160.79 	 256.515 	
486 	 -1014 	 5837 	 43.435 	 -165.515 	 237.335 	
560 	 -1092 	 5518 	 157.15 	 -157.99 	 219.555 	
921 	 -1182 	 5090 	 265.72 	 -141.925 	 197.26 	
1066 	 -1145 	 4239 	 364.21 	 -117.18 	 164.045 	
841 	 -965 	 3528 	 443.205 	 -84.77 	 125.965 	
542 	 -732 	 3206 	 507.85 	 -51.065 	 91.21 	
513 	 -512 	 2553 	 564.83 	 -26.845 	 58.975 	
457 	 -281 	 1697 	 605.325 	 -9.52 	 25.2 	
353 	 -205 	 1082 	 624.89 	 -3.535 	 -8.015 	
192 	 -197 	 731 	 632.66 	 -4.585 	 -38.885 	
188 	 -155 	 179 	 634.025 	 -9.66 	 -66.99 	
225 	 -102 	 -465 	 625.485 	 -9.625 	 -94.325 	
244 	 -103 	 -920 	 605.43 	 -1.575 	 -121.415 	
192 	 -56 	 -1197 	 580.44 	 16.38 	 -145.145 	
38 	 24 	 -1362 	 554.05 	 39.655 	 -164.43 	
-52 	 62 	 -1579 	 523.985 	 59.605 	 -178.29 	
-143 	 53 	 -1583 	 488.985 	 71.19 	 -187.67 	
-306 	 10 	 -1522 	 453.32 	 69.51 	 -195.265 	
-499 	 5 	 -1564 	 417.935 	 55.44 	 -199.535 	
-609 	 36 	 -1623 	 379.925 	 32.865 	 -201.215 	
-625 	 -110 	 -1617 	 341.775 	 9.73 	 -201.215 	
-585 	 -196 	 -1832 	 306.145 	 -7.105 	 -201.11 	
-575 	 -173 	 -1978 	 269.325 	 -12.04 	 -200.55 	
-596 	 -195 	 -1810 	 232.925 	 -6.335 	 -198.065 	
-662 	 -187 	 -1601 	 202.755 	 3.92 	 -194.145 	
-795 	 -137 	 -1526 	 176.435 	 10.78 	 -189.875 	
-1002 	 -152 	 -1377 	 149.905 	 8.4 	 -184.695 	
-1175 	 -201 	 -1155 	 125.51 	 -3.99 	 -177.66 	
-1215 	 -236 	 -1051 	 105.14 	 -22.855 	 -169.365 	
-1192 	 -278 	 -1022 	 87.185 	 -41.72 	 -161.7 	
-1207 	 -322 	 -963 	 70.77 	 -55.86 	 -155.155 	
-1243 	 -353 	 -890 	 57.12 	 -63.315 	 -148.645 	
-1274 	 -349 	 -823 	 47.285 	 -64.75 	 -140.84 	
-1265 	 -357 	 -768 	 39.585 	 -61.355 	 -133.0 	
-1282 	 -372 	 -684 	 33.985 	 -54.495 	 -126.21 	
-1327 	 -385 	 -615 	 30.73 	 -45.675 	 -119.49 	
-1337 	 -410 	 -587 	 29.225 	 -35.77 	 -112.315 	
-1328 	 -417 	 -534 	 28.665 	 -25.06 	 -105.665 	
-1327 	 -402 	 -435 	 29.54 	 -13.44 	 -99.61 	
-1317 	 -363 	 -367 	 32.41 	 -1.47 	 -93.87 	
-1307 	 -309 	 -324 	 36.085 	 10.885 	 -88.025 	
-1290 	 -279 	 -278 	 40.005 	 23.065 	 -82.285 	
-1277 	 -255 	 -223 	 44.415 	 34.615 	 -77.0 	
-1268 	 -220 	 -183 	 49.245 	 44.765 	 -71.61 	
-1246 	 -194 	 -145 	 54.11 	 52.465 	 -65.8 	
-1214 	 -182 	 -100 	 59.08 	 57.19 	 -60.095 	
-1208 	 -171 	 -44 	 64.085 	 58.695 	 -54.88 	
-1220 	 -151 	 -4 	 69.16 	 57.015 	 -50.015 	
-1233 	 -122 	 11 	 74.235 	 52.885 	 -45.045 	
-1228 	 -103 	 11 	 78.995 	 47.67 	 -39.935 	
-1201 	 -96 	 8 	 83.58 	 42.14 	 -35.035 	
-1164 	 -109 	 12 	 87.675 	 37.38 	 -30.485 	
-1123 	 -131 	 10 	 91.7 	 33.425 	 -26.215 	
-1101 	 -130 	 -4 	 95.55 	 30.485 	 -22.925 	
-1119 	 -117 	 -48 	 99.645 	 28.035 	 -19.985 	
-1148 	 -149 	 -131 	 103.775 	 26.285 	 -16.59 	
-1176 	 -283 	 -269 	 107.66 	 25.445 	 -13.3 	
-1204 	 -496 	 -453 	 112.035 	 25.375 	 -9.94 	
-1215 	 -814 	 -759 	 118.055 	 26.075 	 -5.74 	
-1228 	 -1248 	 -1205 	 125.44 	 28.525 	 -1.33 	
-1241 	 -1880 	 -1799 	 132.405 	 33.425 	 4.375 	
-1158 	 -2801 	 -2530 	 139.3 	 43.855 	 11.69 	
-852 	 -3859 	 -3404 	 145.81 	 67.55 	 23.975 	
-47 	 -4617 	 -4100 	 144.48 	 108.255 	 39.97 	
594 	 -4693 	 -4341 	 133.42 	 168.0 	 45.36 	
70 	 -4308 	 -4470 	 119.84 	 236.705 	 45.745 	
-1016 	 -3868 	 -4576 	 90.475 	 278.25 	 58.905 	
-1365 	 -3583 	 -4221 	 37.94 	 262.185 	 80.465 	
-1773 	 -3259 	 -3215 	 -27.79 	 188.055 	 87.815 	
-2437 	 -2419 	 -2882 	 -95.48 	 68.95 	 85.365 	
-2387 	 -1599 	 -3370 	 -177.8 	 -58.905 	 97.93 	
-1266 	 -1124 	 -3748 	 -279.72 	 -156.135 	 118.475 	
-519 	 -932 	 -3580 	 -387.17 	 -203.42 	 123.445 	
-953 	 -434 	 -3350 	 -488.39 	 -216.545 	 120.96 	
-1924 	 173 	 -3148 	 -591.815 	 -229.88 	 133.14 	
-2316 	 426 	 -2367 	 -699.195 	 -262.885 	 164.64 	
-1969 	 498 	 -1324 	 -793.17 	 -312.025 	 198.45 	
-1798 	 798 	 -821 	 -867.93 	 -363.755 	 223.475 	
-2219 	 1034 	 -622 	 -934.745 	 -403.585 	 254.66 	
-2222 	 749 	 -172 	 -993.755 	 -425.32 	 308.455 	
-1397 	 199 	 566 	 -1030.86 	 -420.595 	 370.195 	
-166 	 -372 	 1550 	 -1039.05 	 -383.075 	 419.965 	
782 	 -1280 	 2797 	 -1017.77 	 -307.51 	 456.54 	
1073 	 -2146 	 3443 	 -961.45 	 -201.635 	 481.005 	
844 	 -2466 	 3304 	 -886.795 	 -91.07 	 491.925 	
439 	 -2821 	 3766 	 -808.43 	 -17.045 	 488.81 	
-289 	 -3346 	 5160 	 -711.48 	 -3.115 	 471.8 	
-434 	 -3060 	 5684 	 -583.8 	 -53.48 	 448.175 	
-470 	 -2491 	 5720 	 -449.295 	 -127.085 	 424.795 	
-22 	 -2571 	 6061 	 -317.765 	 -202.23 	 401.73 	
700 	 -2308 	 6070 	 -178.71 	 -251.265 	 367.29 	
1333 	 -1972 	 5657 	 -41.055 	 -254.66 	 319.165 	
1751 	 -1778 	 5339 	 83.755 	 -214.13 	 261.73 	
2116 	 -1499 	 4989 	 197.365 	 -144.48 	 199.57 	
2186 	 -1192 	 4497 	 297.185 	 -65.065 	 132.755 	
1774 	 -839 	 4006 	 379.995 	 2.59 	 64.645 	
1200 	 -494 	 3559 	 448.28 	 41.51 	 3.71 	
933 	 -251 	 2947 	 503.265 	 50.68 	 -48.405 	
924 	 -52 	 2298 	 540.295 	 40.39 	 -97.195 	
958 	 70 	 1816 	 561.225 	 24.08 	 -145.285 	
992 	 237 	 1134 	 572.18 	 16.485 	 -190.61 	
976 	 341 	 331 	 573.405 	 27.685 	 -229.46 	
911 	 234 	 -382 	 564.515 	 56.455 	 -261.73 	
776 	 117 	 -907 	 549.605 	 95.69 	 -287.875 	
544 	 88 	 -1184 	 530.39 	 132.79 	 -308.945 	
222 	 56 	 -1247 	 506.905 	 156.24 	 -323.82 	
-68 	 82 	 -1245 	 479.92 	 158.97 	 -330.96 	
-299 	 126 	 -1142 	 451.045 	 141.33 	 -330.365 	
-414 	 104 	 -1246 	 422.24 	 107.94 	 -325.01 	
-468 	 133 	 -1524 	 389.2 	 70.77 	 -318.955 	
-472 	 83 	 -1553 	 350.56 	 39.97 	 -310.975 	
-510 	 95 	 -1475 	 313.46 	 19.215 	 -301.7 	
-598 	 186 	 -1484 	 279.02 	 6.475 	 -290.535 	
-740 	 210 	 -1422 	 244.195 	 -4.06 	 -277.865 	
-930 	 159 	 -1258 	 211.155 	 -17.605 	 -264.845 	
-1117 	 184 	 -1141 	 181.44 	 -35.735 	 -251.685 	
-1231 	 195 	 -1070 	 154.035 	 -55.895 	 -238.21 	
-1264 	 121 	 -1045 	 129.535 	 -72.59 	 -224.98 	
-1271 	 55 	 -1042 	 108.5 	 -81.935 	 -213.22 	
-1298 	 -12 	 -991 	 90.685 	 -82.46 	 -202.965 	
-1329 	 -69 	 -897 	 76.79 	 -75.845 	 -193.27 	
-1344 	 -114 	 -805 	 67.025 	 -64.925 	 -184.555 	
-1391 	 -154 	 -691 	 60.585 	 -52.955 	 -176.68 	
-1425 	 -204 	 -583 	 57.295 	 -42.455 	 -168.455 	
-1471 	 -248 	 -471 	 56.7 	 -34.72 	 -160.93 	
-1502 	 -299 	 -396 	 58.45 	 -30.1 	 -153.265 	
-1488 	 -360 	 -361 	 62.02 	 -28.42 	 -145.985 	
-1481 	 -386 	 -301 	 66.395 	 -27.545 	 -139.72 	
-1462 	 -389 	 -235 	 72.38 	 -26.32 	 -133.77 	
-1437 	 -361 	 -201 	 79.555 	 -23.24 	 -128.135 	
-1400 	 -325 	 -204 	 87.22 	 -17.43 	 -122.325 	
-1361 	 -309 	 -201 	 94.605 	 -9.31 	 -116.515 	
-1330 	 -310 	 -163 	 101.465 	 -0.525 	 -110.11 	
-1289 	 -297 	 -88 	 108.15 	 6.755 	 -103.425 	
-1280 	 -237 	 -16 	 114.8 	 11.235 	 -98.245 	
-1368 	 -152 	 25 	 121.24 	 13.09 	 -93.73 	
-1403 	 -91 	 37 	 126.805 	 13.265 	 -87.22 	
-1309 	 -76 	 28 	 131.39 	 13.055 	 -80.01 	
-1223 	 -69 	 19 	 135.45 	 14.28 	 -74.725 	
-1232 	 -35 	 6 	 139.23 	 16.59 	 -70.385 	
-1261 	 -10 	 0 	 142.1 	 18.865 	 -64.855 	
-1255 	 -13 	 15 	 144.375 	 19.81 	 -58.835 	
-1243 	 -28 	 22 	 146.44 	 18.48 	 -54.04 	
-1278 	 -26 	 21 	 148.4 	 15.365 	 -50.365 	
-1306 	 -12 	 2 	 149.87 	 10.955 	 -46.515 	
-1288 	 -15 	 -18 	 150.815 	 6.475 	 -42.315 	
-1260 	 -52 	 -45 	 151.305 	 2.87 	 -38.78 	
-1244 	 -99 	 -94 	 151.725 	 0.455 	 -36.4 	
-1238 	 -107 	 -151 	 151.76 	 0.245 	 -34.58 	
-1223 	 -86 	 -179 	 151.585 	 2.555 	 -32.83 	
-1198 	 -66 	 -203 	 151.305 	 8.05 	 -31.325 	
-1160 	 -53 	 -245 	 151.025 	 16.45 	 -30.205 	
-1130 	 -41 	 -279 	 150.395 	 27.335 	 -29.295 	
-1131 	 -61 	 -289 	 149.415 	 39.13 	 -28.63 	
-1185 	 -143 	 -307 	 148.12 	 49.98 	 -27.545 	
-1243 	 -321 	 -418 	 147.07 	 57.05 	 -25.62 	
-1294 	 -557 	 -637 	 146.685 	 58.8 	 -23.345 	
-1369 	 -849 	 -890 	 146.265 	 56.105 	 -21.63 	
-1466 	 -1252 	 -1199 	 146.405 	 50.925 	 -18.585 	
-1466 	 -1866 	 -1806 	 147.14 	 47.075 	 -12.32 	
-1343 	 -2759 	 -2601 	 144.9 	 51.905 	 -2.275 	
-773 	 -3845 	 -3466 	 138.285 	 69.895 	 16.17 	
104 	 -4551 	 -4035 	 127.05 	 107.065 	 35.7 	
571 	 -4761 	 -4192 	 107.59 	 160.055 	 46.585 	
101 	 -4527 	 -4169 	 79.905 	 213.325 	 56.14 	
-869 	 -3938 	 -4011 	 39.83 	 232.085 	 75.74 	
-1408 	 -3470 	 -3528 	 -18.865 	 191.66 	 102.235 	
-1853 	 -3009 	 -2915 	 -86.52 	 99.68 	 125.055 	
-1930 	 -2338 	 -2766 	 -160.3 	 -26.215 	 147.245 	
-1389 	 -1706 	 -3164 	 -243.53 	 -147.175 	 172.165 	
-715 	 -1262 	 -3306 	 -336.945 	 -231.42 	 194.775 	
-524 	 -1040 	 -3234 	 -430.71 	 -273.035 	 213.15 	
-1061 	 -536 	 -3096 	 -522.62 	 -291.9 	 231.035 	
-1902 	 -133 	 -2501 	 -618.975 	 -319.69 	 256.83 	
-2459 	 168 	 -1483 	 -708.855 	 -372.12 	 292.81 	
-2316 	 351 	 -996 	 -777.735 	 -437.955 	 331.135 	
-2147 	 630 	 -1122 	 -834.26 	 -491.015 	 362.67 	
-2333 	 867 	 -945 	 -888.475 	 -508.9 	 394.03 	
-2328 	 919 	 -340 	 -927.675 	 -477.225 	 434.14 	
-1316 	 632 	 190 	 -946.575 	 -394.835 	 476.91 	
272 	 -327 	 1022 	 -951.125 	 -260.47 	 506.38 	
1187 	 -1712 	 2099 	 -930.545 	 -85.4 	 511.07 	
1226 	 -2393 	 2581 	 -885.815 	 86.555 	 493.045 	
403 	 -2456 	 3417 	 -833.385 	 207.305 	 461.51 	
-829 	 -2712 	 4845 	 -763.735 	 229.145 	 428.505 	
-1671 	 -2738 	 6010 	 -667.415 	 143.15 	 406.49 	
-1113 	 -2632 	 5791 	 -552.16 	 -9.905 	 396.375 	
-451 	 -2266 	 5677 	 -442.085 	 -151.13 	 382.9 	
566 	 -2312 	 6258 	 -324.8 	 -252.945 	 367.745 	
1372 	 -1897 	 5997 	 -186.97 	 -289.555 	 339.5 	
1681 	 -1443 	 5208 	 -56.77 	 -259.105 	 300.825 	
1789 	 -1399 	 5087 	 55.16 	 -186.41 	 257.53 	
1910 	 -1171 	 4843 	 160.965 	 -102.095 	 207.9 	
1762 	 -789 	 4202 	 255.22 	 -26.25 	 153.125 	
1316 	 -440 	 3730 	 330.295 	 27.02 	 99.505 	
863 	 -168 	 3435 	 393.75 	 51.975 	 51.59 	
668 	 32 	 2798 	 450.31 	 55.475 	 8.47 	
684 	 175 	 2068 	 490.945 	 53.025 	 -33.005 	
851 	 255 	 1565 	 514.71 	 56.315 	 -74.445 	
861 	 376 	 1118 	 529.445 	 72.31 	 -114.1 	
786 	 502 	 561 	 536.06 	 99.225 	 -147.49 	
680 	 503 	 129 	 532.525 	 129.955 	 -174.79 	
498 	 417 	 -128 	 523.32 	 157.185 	 -197.715 	
295 	 372 	 -448 	 511.595 	 174.02 	 -215.39 	
117 	 324 	 -733 	 494.62 	 177.765 	 -227.15 	
-29 	 257 	 -861 	 472.29 	 169.75 	 -234.885 	
-127 	 260 	 -975 	 448.56 	 153.86 	 -238.665 	
-167 	 274 	 -1108 	 422.975 	 135.17 	 -239.085 	
-222 	 233 	 -1201 	 394.45 	 117.18 	 -237.685 	
-306 	 208 	 -1292 	 365.225 	 101.045 	 -234.22 	
-399 	 179 	 -1369 	 335.405 	 85.54 	 -228.9 	
-505 	 135 	 -1388 	 304.675 	 69.265 	 -222.81 	
-610 	 66 	 -1391 	 273.98 	 51.8 	 -216.125 	
-701 	 63 	 -1334 	 244.23 	 34.51 	 -208.845 	
-744 	 47 	 -1228 	 216.265 	 18.165 	 -200.445 	
-768 	 20 	 -1155 	 191.205 	 3.535 	 -192.36 	
-847 	 0 	 -1107 	 168.105 	 -9.8 	 -185.29 	
-973 	 -16 	 -1018 	 146.545 	 -22.12 	 -178.395 	
-1063 	 -30 	 -904 	 127.645 	 -32.83 	 -170.59 	
-1085 	 -42 	 -823 	 111.615 	 -41.51 	 -162.61 	
-1109 	 -40 	 -724 	 97.86 	 -47.39 	 -156.135 	
-1194 	 -30 	 -609 	 86.695 	 -51.065 	 -150.395 	
-1281 	 -28 	 -536 	 78.12 	 -52.605 	 -144.76 	
-1298 	 -37 	 -504 	 72.415 	 -52.465 	 -137.865 	
-1281 	 -68 	 -446 	 68.005 	 -49.735 	 -131.845 	
-1268 	 -99 	 -378 	 65.415 	 -44.555 	 -127.19 	
-1303 	 -105 	 -324 	 64.925 	 -37.59 	 -122.92 	
-1346 	 -101 	 -269 	 65.975 	 -29.995 	 -118.055 	
-1332 	 -158 	 -242 	 68.145 	 -22.61 	 -112.91 	
-1331 	 -201 	 -214 	 71.435 	 -15.05 	 -109.27 	
-1352 	 -204 	 -172 	 75.74 	 -6.895 	 -105.98 	
-1333 	 -196 	 -136 	 80.885 	 2.45 	 -102.2 	
-1278 	 -192 	 -125 	 86.765 	 12.845 	 -98.21 	
-1231 	 -204 	 -101 	 92.575 	 23.31 	 -94.325 	
-1209 	 -199 	 -59 	 98.105 	 32.27 	 -91.21 	
-1249 	 -170 	 -17 	 103.915 	 38.535 	 -88.41 	
-1301 	 -132 	 3 	 109.69 	 41.65 	 -84.77 	
-1291 	 -125 	 2 	 114.87 	 41.895 	 -80.255 	
-1249 	 -136 	 1 	 119.315 	 40.6 	 -76.37 	
-1230 	 -123 	 9 	 123.34 	 38.885 	 -73.185 	
-1218 	 -76 	 2 	 127.05 	 37.38 	 -69.65 	
-1191 	 -27 	 -13 	 130.27 	 36.575 	 -65.625 	
-1157 	 -4 	 -42 	 132.72 	 36.75 	 -61.88 	
-1143 	 5 	 -65 	 134.505 	 38.08 	 -58.555 	
-1143 	 15 	 -83 	 135.835 	 40.495 	 -55.265 	
-1134 	 11 	 -111 	 136.885 	 43.785 	 -51.94 	
-1130 	 -15 	 -163 	 137.27 	 47.88 	 -48.825 	
-1131 	 -83 	 -259 	 138.005 	 52.395 	 -45.85 	
-1123 	 -179 	 -380 	 138.88 	 57.505 	 -42.805 	
-1108 	 -308 	 -509 	 139.86 	 63.0 	 -39.865 	
-1117 	 -519 	 -695 	 141.645 	 68.74 	 -36.995 	
-1141 	 -839 	 -981 	 143.92 	 73.78 	 -33.285 	
-1083 	 -1217 	 -1311 	 145.845 	 77.245 	 -27.79 	
-963 	 -1674 	 -1710 	 148.4 	 79.275 	 -22.4 	
-920 	 -2319 	 -2280 	 149.8 	 82.005 	 -17.15 	
-685 	 -3079 	 -3030 	 149.135 	 88.235 	 -5.915 	
-29 	 -3733 	 -3584 	 143.535 	 99.505 	 11.235 	
627 	 -4178 	 -3985 	 130.865 	 111.37 	 23.52 	
432 	 -4345 	 -4213 	 110.88 	 121.24 	 27.02 	
-499 	 -4014 	 -4035 	 75.46 	 109.935 	 33.845 	
-1193 	 -3347 	 -3660 	 23.345 	 60.9 	 46.83 	
-1322 	 -2956 	 -3236 	 -35.035 	 -20.825 	 56.945 	
-1282 	 -2366 	 -3422 	 -97.58 	 -103.18 	 61.81 	
-866 	 -1888 	 -4082 	 -174.79 	 -160.23 	 66.22 	
-393 	 -1682 	 -4217 	 -266.525 	 -174.125 	 72.205 	
5 	 -1719 	 -3982 	 -360.99 	 -157.57 	 75.005 	
-255 	 -1627 	 -3728 	 -451.745 	 -136.5 	 71.61 	
-914 	 -1452 	 -3360 	 -544.25 	 -141.19 	 71.505 	
-1375 	 -1331 	 -2611 	 -636.755 	 -180.67 	 80.92 	
-1412 	 -1188 	 -1877 	 -717.5 	 -239.54 	 94.115 	
-1366 	 -907 	 -1517 	 -786.31 	 -294.63 	 104.02 	
-1454 	 -627 	 -1225 	 -849.135 	 -324.555 	 115.01 	
-1449 	 -591 	 -550 	 -903.63 	 -322.035 	 134.4 	
-1219 	 -638 	 325 	 -940.66 	 -293.09 	 155.785 	
-916 	 -656 	 1167 	 -957.145 	 -245.735 	 170.625 	
-687 	 -711 	 2257 	 -956.795 	 -184.24 	 179.445 	
-410 	 -1262 	 3343 	 -935.69 	 -112.805 	 185.29 	
-302 	 -1677 	 4069 	 -892.605 	 -35.0 	 183.225 	
-690 	 -1725 	 4776 	 -834.855 	 32.41 	 173.635 	
-1174 	 -1914 	 5633 	 -761.705 	 63.0 	 163.625 	
-1406 	 -2036 	 6244 	 -669.34 	 48.79 	 156.555 	
-1189 	 -1854 	 6300 	 -561.33 	 5.495 	 152.775 	
-1061 	 -1597 	 6057 	 -449.89 	 -40.005 	 148.26 	
-815 	 -1402 	 6343 	 -337.435 	 -75.145 	 145.95 	
-304 	 -1042 	 6634 	 -213.64 	 -87.535 	 144.34 	
132 	 -731 	 6276 	 -83.3 	 -69.93 	 137.9 	
195 	 -568 	 5755 	 34.51 	 -30.485 	 128.625 	
68 	 -467 	 5654 	 136.43 	 11.445 	 120.68 	
-46 	 -391 	 5572 	 232.12 	 38.22 	 113.82 	
-195 	 -286 	 4875 	 320.6 	 43.995 	 106.015 	
-333 	 -221 	 3925 	 392.07 	 36.61 	 98.7 	
-349 	 -226 	 3262 	 447.195 	 27.405 	 91.175 	
-228 	 -178 	 2609 	 494.69 	 21.77 	 80.57 	
-171 	 -21 	 1843 	 531.475 	 24.78 	 66.955 	
-108 	 131 	 1294 	 551.005 	 32.9 	 53.55 	
-64 	 230 	 1000 	 559.72 	 42.455 	 41.72 	
-17 	 242 	 559 	 562.73 	 48.055 	 30.065 	
-95 	 296 	 54 	 556.885 	 48.895 	 17.955 	
-220 	 271 	 -226 	 541.45 	 44.065 	 6.615 	
-306 	 234 	 -367 	 523.04 	 33.32 	 -3.395 	
-288 	 254 	 -567 	 503.58 	 19.075 	 -11.55 	
-209 	 202 	 -733 	 481.18 	 2.8 	 -19.88 	
-204 	 59 	 -850 	 456.715 	 -14.42 	 -28.525 	
-305 	 -12 	 -1024 	 431.655 	 -31.36 	 -36.75 	
-379 	 -50 	 -1171 	 404.075 	 -47.775 	 -43.575 	
-371 	 -112 	 -1183 	 374.29 	 -62.3 	 -49.385 	
-343 	 -137 	 -1186 	 345.94 	 -73.43 	 -56.0 	
-424 	 -65 	 -1213 	 320.285 	 -79.8 	 -63.56 	
-518 	 -40 	 -1337 	 294.63 	 -81.9 	 -69.755 	
-553 	 -43 	 -1479 	 267.82 	 -77.525 	 -74.97 	
-550 	 38 	 -1418 	 240.625 	 -65.38 	 -80.78 	
-567 	 135 	 -1205 	 216.965 	 -46.795 	 -86.695 	
-637 	 217 	 -1111 	 197.89 	 -26.075 	 -91.875 	
-752 	 219 	 -1120 	 178.99 	 -9.695 	 -96.425 	
-903 	 140 	 -1038 	 159.32 	 -2.485 	 -100.45 	
-1014 	 66 	 -892 	 141.4 	 -5.81 	 -103.565 	
-1043 	 24 	 -781 	 126.49 	 -16.31 	 -106.015 	
-1037 	 -10 	 -728 	 114.135 	 -28.385 	 -109.27 	
-1044 	 -53 	 -727 	 103.495 	 -38.185 	 -112.805 	
-1032 	 -96 	 -728 	 94.71 	 -43.19 	 -115.325 	
-1016 	 -162 	 -687 	 87.395 	 -42.735 	 -117.81 	
-1006 	 -198 	 -666 	 82.775 	 -38.465 	 -119.98 	
-1056 	 -224 	 -603 	 79.345 	 -31.99 	 -121.835 	
-1071 	 -253 	 -536 	 77.21 	 -25.76 	 -122.745 	
-1097 	 -265 	 -476 	 76.685 	 -19.915 	 -123.655 	
-1114 	 -278 	 -444 	 76.685 	 -15.785 	 -124.215 	
-1130 	 -296 	 -368 	 77.21 	 -12.565 	 -124.145 	
-1135 	 -295 	 -316 	 79.45 	 -9.415 	 -123.9 	
-1132 	 -272 	 -327 	 82.705 	 -5.53 	 -123.515 	
-1105 	 -270 	 -338 	 85.435 	 0.035 	 -122.78 	
-1091 	 -278 	 -317 	 88.34 	 7.455 	 -121.66 	
-1079 	 -299 	 -315 	 92.33 	 15.855 	 -119.315 	
-1031 	 -335 	 -319 	 95.935 	 23.975 	 -116.27 	
-1000 	 -339 	 -284 	 99.26 	 31.115 	 -114.1 	
-1065 	 -294 	 -234 	 103.005 	 36.61 	 -112.63 	
-1142 	 -236 	 -235 	 107.205 	 39.76 	 -109.62 	
-1149 	 -212 	 -233 	 110.145 	 41.02 	 -105.035 	
-1107 	 -215 	 -215 	 112.63 	 40.775 	 -100.94 	
-1108 	 -207 	 -215 	 115.185 	 39.55 	 -97.72 	
-1134 	 -177 	 -229 	 117.11 	 37.45 	 -94.395 	
-1135 	 -159 	 -231 	 118.37 	 34.755 	 -90.195 	
-1123 	 -180 	 -237 	 119.56 	 31.85 	 -86.38 	
-1147 	 -241 	 -314 	 120.925 	 28.63 	 -82.985 	
-1187 	 -356 	 -452 	 122.01 	 24.99 	 -79.38 	
-1200 	 -548 	 -627 	 123.06 	 21.175 	 -75.39 	
-1204 	 -803 	 -829 	 124.495 	 18.235 	 -71.505 	
-1247 	 -1198 	 -1145 	 126.105 	 17.535 	 -67.865 	
-1256 	 -1728 	 -1630 	 127.61 	 20.895 	 -62.86 	
-1078 	 -2276 	 -2153 	 126.875 	 29.575 	 -54.53 	
-721 	 -2852 	 -2662 	 123.795 	 46.41 	 -43.82 	
-445 	 -3330 	 -3142 	 119.245 	 75.985 	 -34.195 	
-282 	 -3687 	 -3538 	 108.535 	 116.725 	 -22.75 	
-188 	 -3745 	 -3721 	 88.48 	 161.035 	 -5.915 	
-300 	 -3861 	 -3733 	 60.095 	 191.73 	 9.94 	
-1006 	 -3945 	 -3583 	 19.88 	 191.415 	 22.225 	
-1525 	 -3675 	 -3430 	 -32.2 	 145.985 	 38.465 	
-1724 	 -3082 	 -3197 	 -94.36 	 65.415 	 55.825 	
-1692 	 -2442 	 -3019 	 -167.51 	 -31.99 	 70.84 	
-1552 	 -1896 	 -3006 	 -249.095 	 -121.17 	 87.22 	
-1305 	 -1332 	 -3121 	 -338.73 	 -188.825 	 106.12 	
-1202 	 -926 	 -3009 	 -437.29 	 -238.07 	 125.475 	
-1612 	 -518 	 -2413 	 -536.305 	 -281.925 	 146.37 	
-2354 	 28 	 -1859 	 -625.415 	 -335.755 	 174.685 	
-2706 	 384 	 -1642 	 -705.075 	 -400.645 	 216.055 	
-2674 	 495 	 -1482 	 -776.3 	 -458.5 	 262.36 	
-2638 	 500 	 -1304 	 -835.45 	 -492.625 	 305.69 	
-2634 	 545 	 -1119 	 -882.455 	 -493.01 	 350.49 	
-2241 	 245 	 -719 	 -917.385 	 -453.53 	 403.27 	
-1072 	 -490 	 55 	 -934.395 	 -376.775 	 457.17 	
193 	 -1303 	 1178 	 -929.32 	 -269.64 	 490.49 	
288 	 -1848 	 2113 	 -898.24 	 -143.745 	 496.195 	
-337 	 -2012 	 2519 	 -848.12 	 -23.66 	 494.55 	
-577 	 -2316 	 3120 	 -791.7 	 64.225 	 493.85 	
-495 	 -2764 	 3953 	 -724.43 	 104.72 	 478.03 	
-893 	 -2630 	 4897 	 -637.77 	 98.35 	 446.705 	
-1163 	 -2306 	 5394 	 -535.535 	 44.73 	 420.805 	
-763 	 -2095 	 5608 	 -426.195 	 -27.685 	 405.825 	
210 	 -1893 	 5576 	 -315.735 	 -90.335 	 389.27 	
974 	 -1710 	 5711 	 -203.875 	 -124.25 	 359.555 	
1360 	 -1303 	 5541 	 -89.53 	 -123.935 	 323.05 	
1554 	 -953 	 5198 	 16.1 	 -94.115 	 289.17 	
1761 	 -789 	 5074 	 108.5 	 -51.695 	 255.78 	
1786 	 -576 	 5005 	 192.71 	 -14.105 	 216.58 	
1505 	 -236 	 4621 	 268.765 	 7.665 	 174.755 	
1193 	 32 	 4002 	 331.415 	 12.775 	 138.04 	
1115 	 123 	 3315 	 381.01 	 7.35 	 104.405 	
1109 	 196 	 2639 	 420.35 	 1.4 	 67.795 	
1055 	 303 	 2025 	 449.61 	 -0.525 	 28.63 	
1006 	 484 	 1480 	 468.055 	 4.34 	 -8.54 	
984 	 591 	 1055 	 477.085 	 15.61 	 -42.07 	
963 	 562 	 610 	 480.34 	 29.365 	 -73.255 	
867 	 516 	 65 	 478.135 	 42.525 	 -103.46 	
609 	 461 	 -295 	 468.93 	 52.605 	 -131.18 	
364 	 440 	 -428 	 455.525 	 57.05 	 -153.615 	
246 	 442 	 -553 	 441.14 	 55.825 	 -171.08 	
221 	 440 	 -750 	 424.165 	 50.19 	 -186.62 	
130 	 416 	 -828 	 403.69 	 42.7 	 -200.76 	
-26 	 344 	 -903 	 381.99 	 34.02 	 -211.82 	
-166 	 280 	 -1185 	 358.715 	 25.375 	 -219.8 	
-241 	 270 	 -1377 	 331.73 	 21.56 	 -225.925 	
-264 	 261 	 -1323 	 304.43 	 24.71 	 -230.09 	
-243 	 292 	 -1311 	 280.595 	 34.545 	 -232.085 	
-287 	 346 	 -1371 	 257.495 	 47.145 	 -232.855 	
-465 	 357 	 -1271 	 232.575 	 57.155 	 -232.785 	
-665 	 349 	 -1067 	 209.545 	 59.57 	 -230.335 	
-776 	 353 	 -971 	 189.315 	 53.13 	 -225.785 	
-828 	 325 	 -929 	 169.12 	 39.27 	 -220.64 	
-870 	 260 	 -827 	 149.52 	 21.455 	 -215.18 	
-899 	 218 	 -719 	 132.965 	 2.695 	 -209.615 	
-908 	 202 	 -696 	 118.545 	 -13.79 	 -204.645 	
-1062 	 239 	 -595 	 105.175 	 -25.725 	 -200.2 	
-1038 	 189 	 -556 	 94.64 	 -36.085 	 -191.24 	
-1091 	 162 	 -476 	 86.135 	 -41.265 	 -184.8 	
-1127 	 131 	 -444 	 79.38 	 -43.54 	 -178.29 	
-1165 	 100 	 -388 	 74.2 	 -43.715 	 -171.255 	
-1195 	 44 	 -302 	 70.665 	 -42.455 	 -164.01 	
-1218 	 -5 	 -249 	 69.3 	 -40.6 	 -157.29 	
-1252 	 -25 	 -212 	 68.985 	 -37.66 	 -151.375 	
-1268 	 -48 	 -167 	 70.28 	 -33.81 	 -144.515 	
-1263 	 -76 	 -128 	 72.765 	 -28.315 	 -138.075 	
-1239 	 -107 	 -118 	 76.44 	 -21.175 	 -132.02 	
-1223 	 -137 	 -111 	 80.78 	 -12.39 	 -126.35 	
-1206 	 -162 	 -91 	 85.575 	 -2.415 	 -120.68 	
-1198 	 -173 	 -58 	 91.21 	 7.42 	 -115.43 	
-1205 	 -182 	 -42 	 97.44 	 16.94 	 -110.53 	
-1216 	 -189 	 -30 	 104.125 	 25.69 	 -105.805 	
-1208 	 -210 	 -14 	 110.985 	 33.285 	 -100.8 	
-1195 	 -253 	 -7 	 117.95 	 38.885 	 -95.2 	
-1175 	 -320 	 -18 	 125.125 	 41.3 	 -89.25 	
-1195 	 -400 	 -80 	 132.755 	 39.795 	 -84.49 	
-1306 	 -507 	 -206 	 140.805 	 34.825 	 -80.36 	
-1418 	 -690 	 -404 	 149.45 	 27.265 	 -74.795 	
-1404 	 -1002 	 -696 	 158.97 	 18.83 	 -67.445 	
-1345 	 -1428 	 -1107 	 169.645 	 11.655 	 -59.955 	
-1351 	 -2043 	 -1731 	 182.035 	 7.525 	 -53.83 	
-1364 	 -2953 	 -2461 	 193.83 	 8.855 	 -45.185 	
-1077 	 -3977 	 -3241 	 203.63 	 18.97 	 -31.22 	
-443 	 -4818 	 -4099 	 210.525 	 43.155 	 -16.45 	
76 	 -4969 	 -4696 	 207.76 	 87.955 	 -6.02 	
146 	 -4588 	 -4940 	 193.515 	 148.61 	 2.45 	
-303 	 -3896 	 -4888 	 167.72 	 207.375 	 17.675 	
-575 	 -3346 	 -4587 	 121.835 	 227.43 	 41.02 	
-986 	 -3072 	 -3600 	 57.645 	 188.055 	 56.595 	
-1394 	 -2592 	 -3040 	 -10.605 	 89.53 	 64.47 	
-1444 	 -1765 	 -3482 	 -90.09 	 -37.695 	 74.97 	
-843 	 -1388 	 -3878 	 -193.025 	 -149.345 	 93.31 	
40 	 -1307 	 -3950 	 -304.465 	 -216.79 	 106.89 	
-10 	 -925 	 -3882 	 -415.275 	 -242.13 	 105.735 	
-1101 	 -430 	 -3557 	 -527.975 	 -255.36 	 104.09 	
-2067 	 -17 	 -2990 	 -638.19 	 -280.105 	 119.105 	
-1931 	 114 	 -2351 	 -740.075 	 -318.78 	 144.515 	
-1516 	 103 	 -1788 	 -828.24 	 -352.66 	 159.74 	
-1879 	 375 	 -1383 	 -905.065 	 -371.98 	 165.69 	
-2523 	 586 	 -729 	 -975.905 	 -377.125 	 185.92 	
-2328 	 473 	 292 	 -1030.65 	 -368.41 	 223.79 	
-1458 	 122 	 1226 	 -1058.79 	 -341.74 	 255.955 	
-745 	 -613 	 2263 	 -1063.48 	 -288.085 	 275.345 	
-331 	 -1499 	 3390 	 -1044.72 	 -205.52 	 288.785 	
-273 	 -2074 	 4546 	 -995.26 	 -102.795 	 297.15 	
-106 	 -2396 	 4757 	 -914.585 	 -8.12 	 295.96 	
-286 	 -2700 	 4975 	 -821.66 	 55.51 	 282.345 	
-874 	 -2935 	 5948 	 -717.01 	 74.165 	 261.905 	
-1288 	 -2652 	 6280 	 -590.065 	 46.41 	 246.54 	
-1128 	 -2173 	 6391 	 -457.205 	 -13.65 	 242.76 	
-578 	 -1911 	 6746 	 -324.52 	 -80.185 	 240.66 	
0 	 -1632 	 7081 	 -182.385 	 -132.615 	 232.435 	
295 	 -1303 	 6761 	 -33.915 	 -156.03 	 219.52 	
483 	 -1177 	 6033 	 101.64 	 -150.325 	 204.575 	
760 	 -1194 	 5679 	 218.295 	 -122.92 	 185.325 	
884 	 -1200 	 5347 	 326.2 	 -85.19 	 158.69 	
693 	 -1014 	 4450 	 422.765 	 -47.18 	 128.24 	
373 	 -780 	 3573 	 496.3 	 -15.715 	 100.87 	
157 	 -634 	 3219 	 550.76 	 -0.105 	 77.035 	
147 	 -473 	 2762 	 596.435 	 -0.805 	 53.41 	
198 	 -214 	 1894 	 628.425 	 -11.725 	 28.98 	
246 	 -92 	 1165 	 641.27 	 -23.1 	 3.745 	
358 	 -29 	 679 	 641.76 	 -25.305 	 -21.315 	
504 	 67 	 153 	 637.07 	 -11.13 	 -44.8 	
635 	 157 	 -457 	 625.485 	 16.695 	 -65.905 	
631 	 176 	 -825 	 604.31 	 51.24 	 -85.155 	
402 	 162 	 -888 	 577.78 	 79.415 	 -102.13 	
59 	 200 	 -859 	 551.075 	 91.175 	 -115.115 	
-202 	 212 	 -884 	 522.375 	 80.08 	 -124.075 	
-380 	 139 	 -923 	 490.28 	 50.12 	 -131.81 	
-482 	 -4 	 -1123 	 455.945 	 9.905 	 -139.335 	
-469 	 -78 	 -1443 	 419.405 	 -26.74 	 -148.12 	
-419 	 -42 	 -1572 	 380.94 	 -48.02 	 -157.57 	
-347 	 -12 	 -1641 	 344.68 	 -49.245 	 -165.725 	
-316 	 58 	 -1742 	 310.905 	 -33.215 	 -172.725 	
-391 	 96 	 -1712 	 277.2 	 -9.065 	 -178.99 	
-576 	 67 	 -1530 	 245.245 	 13.125 	 -183.575 	
-746 	 54 	 -1390 	 216.72 	 25.025 	 -185.885 	
-865 	 55 	 -1266 	 189.91 	 25.445 	 -186.62 	
-930 	 28 	 -1091 	 164.955 	 17.815 	 -186.095 	
-926 	 -6 	 -970 	 143.71 	 6.79 	 -184.485 	
-899 	 -33 	 -920 	 125.65 	 -3.29 	 -182.7 	
-915 	 -69 	 -856 	 109.62 	 -10.57 	 -180.985 	
-954 	 -107 	 -745 	 96.25 	 -14.805 	 -178.535 	
-1000 	 -130 	 -631 	 85.785 	 -16.625 	 -175.63 	
-1008 	 -146 	 -572 	 78.855 	 -17.815 	 -171.08 	
-1064 	 -168 	 -501 	 73.64 	 -17.535 	 -166.985 	
-1118 	 -188 	 -434 	 70.35 	 -16.59 	 -162.505 	
-1117 	 -230 	 -376 	 69.02 	 -14.875 	 -156.765 	
-1071 	 -283 	 -326 	 69.51 	 -12.495 	 -151.48 	
-1080 	 -312 	 -281 	 71.505 	 -9.345 	 -147.665 	
-1146 	 -311 	 -229 	 74.585 	 -5.53 	 -143.64 	
-1169 	 -306 	 -198 	 78.96 	 -1.4 	 -138.075 	
-1148 	 -319 	 -193 	 84.035 	 3.5 	 -132.615 	
-1140 	 -345 	 -193 	 89.565 	 9.275 	 -128.275 	
-1158 	 -353 	 -175 	 95.515 	 16.31 	 -124.39 	
-1155 	 -333 	 -163 	 101.885 	 24.57 	 -119.98 	
-1133 	 -321 	 -186 	 108.815 	 33.845 	 -115.22 	
-1108 	 -346 	 -226 	 115.395 	 43.155 	 -110.635 	
-1104 	 -389 	 -230 	 121.485 	 51.94 	 -106.33 	
-1111 	 -402 	 -202 	 127.505 	 59.115 	 -102.13 	
-1126 	 -381 	 -203 	 133.91 	 63.91 	 -97.825 	
-1139 	 -353 	 -236 	 139.685 	 66.15 	 -93.17 	
-1132 	 -347 	 -249 	 144.55 	 66.08 	 -88.305 	
-1116 	 -353 	 -244 	 148.89 	 64.645 	 -83.755 	
-1107 	 -342 	 -261 	 152.915 	 62.93 	 -79.59 	
-1095 	 -329 	 -303 	 156.065 	 61.67 	 -75.145 	
-1080 	 -346 	 -336 	 158.235 	 61.145 	 -70.735 	
-1092 	 -406 	 -391 	 159.845 	 60.935 	 -66.71 	
-1113 	 -495 	 -512 	 161.0 	 60.27 	 -62.51 	
-1094 	 -577 	 -636 	 161.21 	 58.415 	 -57.82 	
-1073 	 -689 	 -728 	 160.615 	 54.88 	 -53.34 	
-1103 	 -876 	 -899 	 160.58 	 50.295 	 -49.665 	
-1173 	 -1118 	 -1218 	 160.16 	 46.34 	 -44.73 	
-1183 	 -1556 	 -1670 	 156.59 	 44.17 	 -36.225 	
-904 	 -2116 	 -2257 	 148.68 	 45.045 	 -22.26 	
-422 	 -2785 	 -2818 	 138.88 	 50.47 	 -6.72 	
-51 	 -3496 	 -3465 	 127.96 	 62.475 	 6.58 	
8 	 -4019 	 -3882 	 108.08 	 80.745 	 24.71 	
124 	 -4348 	 -3987 	 75.74 	 91.875 	 45.36 	
-256 	 -4268 	 -4022 	 34.44 	 87.465 	 57.785 	
-1170 	 -3815 	 -3657 	 -17.185 	 56.07 	 66.675 	
-1737 	 -3059 	 -3604 	 -77.98 	 -2.835 	 85.855 	
-1470 	 -2572 	 -3635 	 -150.465 	 -73.64 	 108.745 	
-1052 	 -2216 	 -3658 	 -233.38 	 -135.625 	 121.59 	
-906 	 -1733 	 -3602 	 -322.595 	 -179.375 	 129.43 	
-1050 	 -1426 	 -3472 	 -416.5 	 -211.19 	 141.505 	
-1302 	 -1167 	 -3195 	 -512.33 	 -244.16 	 158.725 	
-1574 	 -930 	 -2735 	 -606.13 	 -287.525 	 177.695 	
-2016 	 -529 	 -2177 	 -691.425 	 -338.765 	 198.205 	
-2280 	 -84 	 -1860 	 -765.52 	 -385.28 	 224.91 	
-2310 	 251 	 -1547 	 -832.965 	 -412.125 	 256.515 	
-2189 	 406 	 -993 	 -893.41 	 -412.335 	 287.385 	
-2185 	 414 	 -263 	 -939.435 	 -386.435 	 316.05 	
-1933 	 386 	 298 	 -969.43 	 -342.965 	 346.815 	
-1158 	 -73 	 1170 	 -985.04 	 -280.665 	 378.0 	
-276 	 -1010 	 2387 	 -978.67 	 -199.5 	 399.56 	
172 	 -1795 	 3136 	 -943.46 	 -103.46 	 406.665 	
180 	 -2169 	 3398 	 -892.36 	 -10.36 	 403.025 	
-265 	 -2421 	 3928 	 -829.85 	 55.72 	 390.355 	
-796 	 -2571 	 4661 	 -749.175 	 76.055 	 377.58 	
-1093 	 -2599 	 5114 	 -649.985 	 43.015 	 366.975 	
-814 	 -2501 	 5095 	 -537.775 	 -25.305 	 356.825 	
-566 	 -2123 	 5007 	 -422.94 	 -91.21 	 343.84 	
-16 	 -1878 	 5302 	 -307.44 	 -142.345 	 333.375 	
700 	 -1579 	 5482 	 -181.475 	 -164.115 	 318.745 	
1085 	 -1317 	 5148 	 -55.79 	 -155.19 	 294.175 	
1029 	 -1118 	 4880 	 53.095 	 -126.98 	 263.76 	
899 	 -933 	 4945 	 147.735 	 -93.065 	 233.135 	
912 	 -699 	 4812 	 235.935 	 -62.93 	 202.545 	
963 	 -427 	 4179 	 312.515 	 -39.095 	 169.82 	
882 	 -183 	 3587 	 369.845 	 -20.44 	 135.38 	
782 	 -3 	 3116 	 413.98 	 -8.505 	 101.395 	
649 	 155 	 2537 	 450.8 	 -0.245 	 68.81 	
599 	 249 	 1833 	 475.755 	 3.01 	 38.115 	
569 	 303 	 1386 	 486.01 	 3.185 	 7.805 	
529 	 392 	 1138 	 488.88 	 1.715 	 -21.98 	
453 	 489 	 792 	 488.39 	 0.805 	 -49.56 	
432 	 481 	 274 	 481.53 	 2.555 	 -74.27 	
365 	 427 	 -115 	 467.88 	 9.415 	 -97.65 	
240 	 338 	 -377 	 451.22 	 19.04 	 -120.015 	
68 	 319 	 -634 	 434.035 	 29.33 	 -139.93 	
-27 	 295 	 -863 	 414.505 	 36.89 	 -155.47 	
-119 	 230 	 -965 	 392.315 	 41.475 	 -169.505 	
-264 	 183 	 -1010 	 370.16 	 43.575 	 -181.965 	
-375 	 206 	 -1107 	 348.355 	 43.26 	 -190.925 	
-373 	 187 	 -1222 	 325.325 	 42.595 	 -196.7 	
-343 	 160 	 -1276 	 301.7 	 43.715 	 -201.32 	
-363 	 182 	 -1265 	 278.775 	 47.005 	 -204.61 	
-417 	 211 	 -1216 	 256.83 	 51.24 	 -206.465 	
-475 	 216 	 -1135 	 235.83 	 54.95 	 -206.185 	
-556 	 234 	 -1111 	 215.635 	 55.93 	 -204.575 	
-627 	 231 	 -1063 	 195.335 	 54.005 	 -201.425 	
-626 	 216 	 -938 	 175.42 	 49.105 	 -196.84 	
-652 	 229 	 -836 	 158.41 	 41.72 	 -192.395 	
-737 	 264 	 -785 	 143.29 	 32.48 	 -187.775 	
-827 	 275 	 -721 	 128.345 	 21.42 	 -182.0 	
-871 	 253 	 -636 	 114.66 	 9.135 	 -175.28 	
-874 	 234 	 -597 	 102.585 	 -2.765 	 -170.03 	
-938 	 224 	 -548 	 92.47 	 -13.65 	 -164.255 	
-990 	 205 	 -527 	 83.65 	 -22.225 	 -157.675 	
-982 	 166 	 -508 	 75.95 	 -27.755 	 -151.41 	
-1000 	 129 	 -450 	 69.37 	 -29.82 	 -146.125 	
-1026 	 110 	 -394 	 65.31 	 -30.205 	 -140.49 	
-1074 	 104 	 -344 	 62.44 	 -28.875 	 -135.24 	
-1103 	 89 	 -309 	 60.76 	 -26.495 	 -129.955 	
-1096 	 54 	 -282 	 60.34 	 -23.205 	 -124.25 	
-1096 	 20 	 -234 	 60.585 	 -19.285 	 -119.455 	
-1118 	 5 	 -193 	 62.055 	 -14.77 	 -114.905 	
-1134 	 -8 	 -166 	 64.505 	 -10.01 	 -110.005 	
-1131 	 -20 	 -142 	 67.48 	 -5.425 	 -105.035 	
-1112 	 -36 	 -119 	 71.19 	 -1.085 	 -100.065 	
-1105 	 -49 	 -90 	 75.18 	 2.73 	 -95.69 	
-1115 	 -54 	 -59 	 79.94 	 6.195 	 -91.245 	
-1129 	 -65 	 -44 	 85.12 	 9.03 	 -86.66 	
-1124 	 -88 	 -41 	 90.265 	 11.2 	 -82.18 	
-1117 	 -107 	 -39 	 95.48 	 12.565 	 -77.91 	
-1147 	 -152 	 -44 	 101.22 	 13.335 	 -73.57 	
-1207 	 -275 	 -93 	 107.205 	 12.635 	 -69.3 	
-1261 	 -450 	 -206 	 113.12 	 10.395 	 -65.03 	
-1296 	 -561 	 -395 	 119.875 	 6.685 	 -61.145 	
-1345 	 -661 	 -631 	 127.785 	 2.555 	 -57.33 	
-1359 	 -889 	 -881 	 135.66 	 -1.19 	 -51.765 	
-1275 	 -1271 	 -1190 	 143.64 	 -3.22 	 -43.89 	
-1178 	 -1770 	 -1695 	 153.685 	 -2.17 	 -37.03 	
-1144 	 -2320 	 -2455 	 163.66 	 3.92 	 -30.17 	
-927 	 -2944 	 -3145 	 167.51 	 16.1 	 -16.38 	
-285 	 -3478 	 -3623 	 166.04 	 33.95 	 1.68 	
178 	 -3575 	 -4098 	 162.015 	 58.87 	 12.425 	
-97 	 -3543 	 -4369 	 147.7 	 89.005 	 20.44 	
-534 	 -3429 	 -4237 	 117.775 	 104.755 	 34.965 	
-1156 	 -3158 	 -3806 	 74.2 	 90.825 	 47.88 	
-1657 	 -2714 	 -3505 	 21.28 	 25.69 	 56.315 	
-1710 	 -2001 	 -3623 	 -42.35 	 -64.89 	 66.43 	
-1386 	 -1363 	 -3756 	 -127.365 	 -162.05 	 74.13 	
-1068 	 -1180 	 -3530 	 -220.01 	 -231.805 	 84.455 	
-622 	 -901 	 -3797 	 -310.345 	 -267.085 	 94.885 	
-591 	 -685 	 -4157 	 -410.06 	 -273.77 	 99.995 	
-1130 	 -551 	 -3811 	 -516.775 	 -272.055 	 106.295 	
-1551 	 -356 	 -3177 	 -616.175 	 -281.295 	 121.555 	
-1613 	 -181 	 -2626 	 -705.18 	 -302.19 	 141.715 	
-1711 	 6 	 -2092 	 -784.525 	 -324.415 	 159.81 	
-1915 	 136 	 -1600 	 -854.49 	 -339.78 	 180.075 	
-1811 	 121 	 -994 	 -915.6 	 -339.99 	 208.53 	
-1404 	 -112 	 -159 	 -962.01 	 -316.68 	 236.915 	
-1034 	 -345 	 772 	 -989.66 	 -270.55 	 257.355 	
-854 	 -727 	 1916 	 -997.71 	 -204.155 	 274.05 	
-510 	 -1401 	 2993 	 -984.515 	 -125.545 	 288.855 	
-366 	 -1934 	 4006 	 -950.88 	 -41.16 	 293.685 	
-461 	 -2265 	 4850 	 -894.915 	 29.96 	 287.035 	
-740 	 -2378 	 5153 	 -818.335 	 70.385 	 272.44 	
-1107 	 -2443 	 5622 	 -733.285 	 74.445 	 260.75 	
-1106 	 -2473 	 6099 	 -636.195 	 41.265 	 253.4 	
-868 	 -1974 	 6277 	 -520.065 	 -9.485 	 245.875 	
-639 	 -1615 	 6572 	 -396.69 	 -62.195 	 238.28 	
-298 	 -1356 	 6610 	 -266.245 	 -103.74 	 233.38 	
-13 	 -1100 	 6374 	 -133.0 	 -122.535 	 228.41 	
265 	 -1047 	 5989 	 -5.705 	 -123.76 	 218.33 	
374 	 -1057 	 5763 	 111.055 	 -113.295 	 202.09 	
427 	 -1020 	 5572 	 220.22 	 -95.585 	 183.995 	
528 	 -1052 	 5025 	 321.545 	 -73.01 	 165.9 	
584 	 -1114 	 4179 	 407.54 	 -46.725 	 145.39 	
470 	 -1078 	 3496 	 475.09 	 -18.62 	 121.87 	
228 	 -932 	 3116 	 530.845 	 7.665 	 98.56 	
60 	 -690 	 2531 	 579.04 	 27.125 	 77.98 	
49 	 -500 	 1825 	 613.025 	 42.735 	 59.71 	
57 	 -421 	 1330 	 629.125 	 52.36 	 40.32 	
-25 	 -389 	 1074 	 635.495 	 55.335 	 19.705 	
-91 	 -204 	 696 	 636.37 	 52.675 	 1.085 	
-56 	 -86 	 219 	 629.405 	 46.725 	 -15.015 	
-38 	 -131 	 -82 	 615.125 	 41.755 	 -31.745 	
-99 	 -111 	 -305 	 598.465 	 40.25 	 -48.545 	
-110 	 -60 	 -619 	 579.005 	 40.845 	 -64.365 	
-174 	 -24 	 -742 	 553.945 	 41.965 	 -78.715 	
-259 	 -96 	 -763 	 528.5 	 39.515 	 -91.28 	
-395 	 -117 	 -993 	 504.07 	 32.865 	 -103.635 	
-488 	 -63 	 -1220 	 475.475 	 25.27 	 -114.555 	
-460 	 -56 	 -1226 	 444.325 	 21.63 	 -123.025 	
-347 	 -48 	 -1227 	 416.15 	 24.85 	 -130.83 	
-303 	 42 	 -1337 	 389.515 	 36.05 	 -139.545 	
-376 	 97 	 -1366 	 361.76 	 52.92 	 -147.14 	
-452 	 90 	 -1272 	 334.565 	 70.42 	 -151.9 	
-485 	 77 	 -1197 	 310.1 	 84.35 	 -154.98 	
-524 	 65 	 -1140 	 287.175 	 92.435 	 -157.92 	
-600 	 33 	 -1035 	 265.475 	 93.59 	 -160.475 	
-686 	 -4 	 -928 	 245.63 	 87.71 	 -161.875 	
-726 	 -50 	 -862 	 227.43 	 75.775 	 -162.12 	
-722 	 -115 	 -805 	 211.05 	 60.13 	 -162.19 	
-742 	 -169 	 -769 	 197.505 	 43.26 	 -162.82 	
-782 	 -193 	 -786 	 185.78 	 27.475 	 -162.925 	
-770 	 -222 	 -790 	 174.72 	 14.665 	 -161.84 	
-720 	 -254 	 -769 	 164.78 	 6.3 	 -161.035 	
-751 	 -269 	 -723 	 156.695 	 2.24 	 -161.455 	
-764 	 -262 	 -736 	 150.43 	 0.35 	 -159.6 	
-774 	 -286 	 -673 	 144.13 	 0.245 	 -157.465 	
-815 	 -284 	 -583 	 139.055 	 0.63 	 -156.17 	
-877 	 -259 	 -540 	 135.345 	 1.575 	 -155.19 	
-905 	 -250 	 -530 	 132.335 	 3.5 	 -153.09 	
-863 	 -271 	 -527 	 129.535 	 6.685 	 -150.605 	
-865 	 -284 	 -488 	 127.155 	 11.83 	 -149.275 	
-876 	 -279 	 -480 	 126.595 	 17.535 	 -146.685 	
-870 	 -301 	 -453 	 126.0 	 23.065 	 -143.605 	
-859 	 -331 	 -404 	 125.615 	 27.545 	 -141.05 	
-931 	 -337 	 -328 	 126.105 	 30.31 	 -139.615 	
-969 	 -321 	 -323 	 127.715 	 30.45 	 -136.43 	
-974 	 -321 	 -311 	 128.94 	 29.225 	 -132.895 	
-951 	 -331 	 -293 	 129.885 	 27.09 	 -130.025 	
-940 	 -339 	 -282 	 131.775 	 24.71 	 -127.295 	
-952 	 -343 	 -277 	 133.525 	 22.61 	 -124.32 	
-945 	 -336 	 -271 	 135.45 	 20.79 	 -121.59 	
-944 	 -331 	 -280 	 137.69 	 19.775 	 -119.525 	
-975 	 -348 	 -313 	 139.93 	 20.02 	 -117.67 	
-1029 	 -412 	 -375 	 142.065 	 21.49 	 -115.745 	
-1060 	 -527 	 -471 	 144.515 	 24.43 	 -113.54 	
-1050 	 -693 	 -606 	 147.875 	 29.015 	 -110.95 	
-1014 	 -896 	 -815 	 152.285 	 34.965 	 -108.325 	
-1006 	 -1217 	 -1117 	 157.045 	 42.28 	 -105.14 	
-995 	 -1714 	 -1430 	 161.21 	 50.715 	 -99.05 	
-832 	 -2366 	 -1841 	 165.935 	 59.5 	 -89.425 	
-539 	 -3334 	 -2468 	 172.375 	 70.665 	 -76.58 	
-181 	 -4613 	 -3155 	 173.53 	 85.89 	 -58.065 	
695 	 -5417 	 -3760 	 165.83 	 99.47 	 -33.88 	
1355 	 -5132 	 -4160 	 152.18 	 108.745 	 -17.5 	
779 	 -4438 	 -4151 	 123.2 	 100.87 	 -5.88 	
-223 	 -4013 	 -3475 	 75.285 	 54.67 	 18.025 	
-833 	 -3517 	 -2708 	 17.395 	 -42.84 	 45.955 	
-1010 	 -2798 	 -2727 	 -46.585 	 -172.445 	 66.5 	
-744 	 -2157 	 -3567 	 -128.38 	 -293.335 	 81.9 	
-661 	 -1431 	 -3901 	 -228.305 	 -361.2 	 99.925 	
-227 	 -1094 	 -4057 	 -337.19 	 -377.72 	 123.935 	
-343 	 -766 	 -3829 	 -449.785 	 -362.95 	 139.3 	
-1565 	 -269 	 -3189 	 -561.47 	 -356.09 	 147.07 	
-2904 	 324 	 -2559 	 -666.995 	 -383.32 	 168.77 	
-3133 	 576 	 -2108 	 -766.045 	 -437.22 	 209.65 	
-2691 	 524 	 -1792 	 -854.49 	 -485.94 	 248.535 	
-2674 	 468 	 -1555 	 -929.285 	 -509.075 	 277.34 	
-3073 	 355 	 -1221 	 -992.495 	 -505.82 	 309.54 	
-3137 	 91 	 -535 	 -1040.48 	 -474.215 	 351.89 	
-2448 	 -272 	 320 	 -1063.34 	 -409.955 	 394.555 	
-1260 	 -1073 	 1299 	 -1060.4 	 -309.575 	 427.385 	
-330 	 -2037 	 2239 	 -1033.38 	 -178.57 	 442.89 	
-130 	 -2696 	 3113 	 -983.115 	 -37.59 	 441.105 	
-437 	 -2854 	 3793 	 -911.295 	 78.155 	 426.615 	
-1060 	 -2990 	 4503 	 -821.275 	 140.07 	 406.63 	
-1055 	 -3235 	 5313 	 -718.445 	 135.38 	 392.7 	
-946 	 -2876 	 5452 	 -600.075 	 90.615 	 375.165 	
-857 	 -2556 	 6064 	 -479.57 	 17.43 	 358.68 	
-454 	 -2104 	 6656 	 -347.585 	 -63.175 	 349.86 	
150 	 -1715 	 6699 	 -206.01 	 -130.48 	 338.87 	
571 	 -1437 	 6374 	 -66.955 	 -163.625 	 321.825 	
968 	 -1350 	 5961 	 60.41 	 -160.825 	 298.305 	
1325 	 -1232 	 5554 	 176.225 	 -126.91 	 266.63 	
1466 	 -1018 	 5001 	 278.81 	 -74.55 	 228.585 	
1301 	 -755 	 4375 	 365.435 	 -20.65 	 188.475 	
930 	 -510 	 3739 	 436.1 	 18.34 	 150.045 	
654 	 -321 	 3073 	 491.68 	 33.95 	 114.205 	
582 	 -131 	 2484 	 532.385 	 34.825 	 79.66 	
668 	 75 	 1851 	 559.58 	 30.905 	 44.87 	
789 	 178 	 1202 	 574.28 	 33.6 	 10.36 	
925 	 305 	 515 	 577.045 	 47.425 	 -22.61 	
936 	 318 	 -129 	 570.43 	 71.505 	 -53.9 	
735 	 301 	 -628 	 557.2 	 99.995 	 -81.34 	
542 	 248 	 -1028 	 537.635 	 122.675 	 -103.46 	
350 	 210 	 -1216 	 512.96 	 135.38 	 -122.92 	
140 	 243 	 -1303 	 485.835 	 136.43 	 -139.685 	
-18 	 191 	 -1412 	 456.855 	 126.805 	 -152.11 	
-41 	 211 	 -1631 	 423.36 	 108.57 	 -160.93 	
-83 	 194 	 -1688 	 386.295 	 87.955 	 -170.275 	
-156 	 236 	 -1688 	 349.335 	 66.78 	 -177.275 	
-223 	 295 	 -1783 	 313.145 	 47.18 	 -181.09 	
-259 	 291 	 -1844 	 275.275 	 31.99 	 -183.26 	
-375 	 298 	 -1774 	 237.405 	 21.175 	 -185.29 	
-522 	 312 	 -1726 	 202.72 	 14.805 	 -185.325 	
-573 	 319 	 -1760 	 169.715 	 12.6 	 -182.385 	
-573 	 307 	 -1705 	 137.34 	 14.805 	 -178.78 	
-609 	 240 	 -1528 	 108.815 	 19.565 	 -174.16 	
-691 	 242 	 -1431 	 85.54 	 23.835 	 -167.895 	
-763 	 224 	 -1336 	 64.75 	 25.76 	 -159.915 	
-839 	 145 	 -1166 	 46.13 	 23.66 	 -151.06 	
-997 	 94 	 -1006 	 32.655 	 17.535 	 -140.665 	
-1043 	 25 	 -973 	 22.995 	 7.665 	 -127.54 	
-1051 	 -53 	 -915 	 14.91 	 -2.87 	 -114.45 	
-1084 	 -121 	 -801 	 9.59 	 -12.53 	 -101.64 	
-1114 	 -152 	 -735 	 7.42 	 -20.51 	 -88.655 	
-1132 	 -152 	 -695 	 7.035 	 -25.83 	 -76.195 	
-1143 	 -157 	 -642 	 8.19 	 -27.895 	 -63.35 	
-1158 	 -164 	 -570 	 10.71 	 -27.335 	 -51.38 	
